Folder: gan/kim_2000

Note: kim_2000/summary.md
## Raman

#### Curve 1 (Disordered Peak)
**Type**: Skewed Gaussian\
**amplitude:** 0.9\
**center** 570.2\
**σ** 1.7
**σ2** 1.3


#### Curve 2 (Ordered Peak)
**Type**:Skewed Gaussian\
**amplitude** 0.3\
**center** 577.0\
**σ** 2.6\
**σ2** 2.9


## S<sup>2</sup>
**Disordered Curve Integrated Area:** 3.470503\
**Ordered Curve Integrated Area:** 1.908296\
**S<sup>2</sup>:** 0.3548












## Reference
Raman Spectrum analyzed from:
DOI:10.1016/S0022-0248(99)00739-3

Note: README.md
## Data Repository for Disorder and Its Impact on Mobility of Undoped GaN
[![DOI](https://zenodo.org/badge/664896126.svg)](https://zenodo.org/badge/latestdoi/664896126)

File: raman_peaks.csv
563.439, 0.042564
564.325, 0.0220215
565.086, 0.0273671
565.737, 0.0681749
566.146, 0.111531
566.478, 0.151323
566.855, 0.190759
567.178, 0.230764
567.457, 0.273331
567.777, 0.32138
567.996, 0.375139
568.228, 0.424476
568.329, 0.471347
568.53, 0.535391
568.669, 0.600935
568.849, 0.651068
568.945, 0.692266
569.075, 0.736145
569.17, 0.786559
569.4, 0.844477
569.743, 0.893817
569.997, 0.955863
570.318, 0.951134
570.593, 0.908382
570.715, 0.862845
570.93, 0.813411
571.073, 0.759123
571.176, 0.71566
571.357, 0.661442
571.539, 0.612193
571.601, 0.566068
571.784, 0.511633
571.913, 0.459057
572.064, 0.412749
572.209, 0.369274
572.336, 0.330796
572.575, 0.279471
572.827, 0.241492
573.393, 0.200258
574.163, 0.201627
574.96, 0.23344
575.838, 0.258796
576.719, 0.269968
577.602, 0.26855
578.489, 0.241155
579.257, 0.207933
579.866, 0.165554
580.594, 0.132257
581.318, 0.120793