Folder: gan/sun_1994/xrd_sic_no_anneal

Note: sun_1994/xrd_sic_no_anneal/summary.md
## Raman

#### Curve 1 (002)
**Type**: Skewed Gaussian\
**amplitude:** 6300.0\
**center** 16.6\
**σ** 0.3
**σ2** 0.5


#### Curve 2 (004)
**Type**:Gaussian\
**amplitude** 650.0\
**center** 35.9\
**σ** 0.3\


## S<sup>2</sup>
**(002) Curve Integrated Area:** 5921.909300\
**(004) Curve Integrated Area:** 419.383977\
**S<sup>2</sup>:** 0.5492
























## Reference
XRD analyzed from:
DOI: 10.1063/1.357133

Note: README.md
## Data Repository for Disorder and Its Impact on Mobility of Undoped GaN
[![DOI](https://zenodo.org/badge/664896126.svg)](https://zenodo.org/badge/latestdoi/664896126)

File: curve_1_fit.dat
14.943,0.000756215
15.033,0.00393221
15.123,0.0186871
15.213,0.0811635
15.303,0.322176
15.393,1.1688
15.483,3.87523
15.573,11.7428
15.663,32.5204
15.753,82.3106
15.843,190.401
15.933,402.527
16.023,777.742
16.113,1373.38
16.203,2216.44
16.293,3269.17
16.383,4406.88
16.473,5429.23
16.563,6113.07
16.653,6295.83
16.743,6126.44
16.833,5727.84
16.923,5145.2
17.013,4440.6
17.103,3682.21
17.193,2933.63
17.283,2245.58
17.373,1651.51
17.463,1166.97
17.553,792.264
17.643,516.782
17.733,323.871
17.823,195.014
17.913,112.82
18.003,62.71
18.093,33.49
18.183,17.1839
18.273,8.47141
18.363,4.01253
18.453,1.82603
18.543,0.798414
18.633,0.33541
18.723,0.135379
18.813,0.0524995
18.903,0.0195608
18.993,0.0070024
19.083,0.00240844
19.173,0.000795888
19.263,0.000252695
19.353,7.7085e-05
19.443,2.25929e-05
19.533,6.36211e-06
19.623,1.72131e-06
19.713,4.4745e-07
19.803,1.11753e-07
19.893,2.68164e-08
19.983,6.18261e-09
20.073,1.36953e-09
20.163,2.91473e-10
20.253,5.96009e-11
20.343,1.17095e-11
20.433,2.21029e-12
20.523,4.00856e-13
20.613,6.98484e-14
20.703,1.16937e-14
20.793,1.88095e-15
20.883,2.9069e-16
20.973,4.3163e-17
21.063,6.15773e-18
21.153,8.44031e-19
21.243,1.11154e-19
21.333,1.40643e-20
21.423,1.70978e-21
21.513,1.99706e-22
21.603,2.24114e-23
21.693,2.41644e-24
21.783,2.50329e-25
21.873,2.49158e-26
21.963,2.38268e-27
22.053,2.1892e-28
22.143,1.93256e-29
22.233,1.63912e-30
22.323,1.33572e-31
22.413,1.04579e-32
22.503,7.86697e-34
22.593,5.68586e-35
22.683,3.94833e-36
22.773,2.63426e-37
22.863,1.68862e-38
22.953,1.04e-39
23.043,6.1541e-41
23.133,3.49883e-42
23.223,1.91122e-43
23.313,1.00305e-44
23.403,5.05787e-46
23.493,2.45041e-47
23.583,1.14061e-48
23.673,5.10113e-50
23.763,2.19191e-51
23.853,9.04912e-53
23.943,3.58937e-54
24.033,1.36791e-55
24.123,5.00873e-57
24.213,1.76208e-58
24.303,5.95594e-60
24.393,1.93421e-61
24.483,6.03511e-63
24.573,1.80924e-64
24.663,5.21115e-66
24.753,1.44211e-67
24.843,3.83437e-69
24.933,9.79528e-71
25.023,2.40419e-72
25.113,5.66953e-74
25.203,1.28456e-75
25.293,2.79634e-77
25.383,5.84863e-79
25.473,1.17529e-80
25.563,2.26917e-82
25.653,4.20935e-84
25.743,7.50226e-86
25.833,1.28469e-87
25.923,2.11364e-89
26.013,3.34112e-91
26.103,5.07436e-93
26.193,7.40455e-95
26.283,1.03811e-96
26.373,1.39836e-98
26.463,1.80976e-100
26.553,2.25036e-102
26.643,2.68851e-104
26.733,3.08602e-106
26.823,3.40341e-108
26.913,3.60627e-110
27.003,3.67138e-112
27.093,3.59112e-114
27.183,3.37488e-116
27.273,3.0473e-118
27.363,2.64362e-120
27.453,2.2035e-122
27.543,1.76463e-124
27.633,1.35776e-126
27.723,1.00374e-128
27.813,7.12929e-131
27.903,4.8652e-133
27.993,3.18994e-135
28.083,2.00952e-137
28.173,1.21628e-139
28.263,7.07292e-142
28.353,3.95179e-144
28.443,2.12137e-146
28.533,1.09413e-148
28.623,5.42187e-151
28.713,2.58141e-153
28.803,1.18085e-155
28.893,5.18988e-158
28.983,2.19154e-160
29.073,8.89142e-163
29.163,3.46594e-165
29.253,1.29807e-167
29.343,4.67093e-170
29.433,1.61487e-172
29.523,5.36413e-175
29.613,1.71194e-177
29.703,5.24938e-180
29.793,1.54652e-182
29.883,4.37753e-185
29.973,1.19051e-187
30.063,3.11074e-190
30.153,7.80951e-193
30.243,1.8837e-195
30.333,4.36543e-198
30.423,9.72012e-201
30.513,2.07943e-203
30.603,4.2741e-206
30.693,8.44061e-209
30.783,1.60151e-211
30.873,2.91955e-214
30.963,5.11364e-217
31.053,8.60541e-220
31.143,1.39137e-222
31.233,2.16142e-225
31.323,3.22601e-228
31.413,4.62616e-231
31.503,6.37388e-234
31.593,8.43752e-237
31.683,1.07313e-239
31.773,1.31136e-242
31.863,1.53963e-245
31.953,1.73677e-248
32.043,1.88232e-251
32.133,1.96008e-254
32.223,1.96102e-257
32.313,1.88504e-260
32.403,1.74094e-263
32.493,1.54482e-266
32.583,1.31704e-269
32.673,1.07882e-272
32.763,8.49039e-276
32.853,6.41998e-279
32.943,4.6641e-282
33.033,3.2556e-285
33.123,2.18334e-288
33.213,1.40683e-291
33.303,8.7094e-295
33.393,5.1804e-298
33.483,2.96052e-301
33.573,1.62555e-304
33.663,8.5755e-308
33.753,4.34658e-311
33.843,2.11673e-314
33.933,9.89811e-318
34.023,0.0
34.113,0.0
34.203,0.0
34.293,0.0
34.383,0.0
34.473,0.0
34.563,0.0
34.653,0.0
34.743,0.0
34.833,0.0
34.923,0.0
35.013,0.0
35.103,0.0
35.193,0.0
35.283,0.0
35.373,0.0
35.463,0.0
35.553,0.0
35.643,0.0
35.733,0.0
35.823,0.0
35.913,0.0
36.003,0.0
36.093,0.0
36.183,0.0
36.273,0.0
36.363,0.0
36.453,0.0
36.543,0.0
36.633,0.0
36.723,0.0
36.813,0.0
36.903,0.0
36.993,0.0
37.083,0.0
37.173,0.0
37.263,0.0
37.353,0.0
37.443,0.0
37.533,0.0
37.623,0.0
37.713,0.0
37.803,0.0
37.893,0.0
37.983,0.0
38.073,0.0
38.163,0.0
38.253,0.0
38.343,0.0
38.433,0.0
38.523,0.0
38.613,0.0
38.703,0.0
38.793,0.0
38.883,0.0
38.973,0.0
39.063,0.0
39.153,0.0
39.243,0.0
39.293,0.0

File: curve_2_fit.dat
14.943,0.0
15.033,0.0
15.123,0.0
15.213,0.0
15.303,0.0
15.393,0.0
15.483,0.0
15.573,0.0
15.663,0.0
15.753,0.0
15.843,0.0
15.933,0.0
16.023,0.0
16.113,0.0
16.203,0.0
16.293,0.0
16.383,0.0
16.473,0.0
16.563,0.0
16.653,0.0
16.743,0.0
16.833,0.0
16.923,0.0
17.013,0.0
17.103,0.0
17.193,0.0
17.283,0.0
17.373,0.0
17.463,0.0
17.553,0.0
17.643,0.0
17.733,0.0
17.823,0.0
17.913,0.0
18.003,0.0
18.093,0.0
18.183,0.0
18.273,0.0
18.363,0.0
18.453,0.0
18.543,0.0
18.633,0.0
18.723,0.0
18.813,0.0
18.903,0.0
18.993,0.0
19.083,0.0
19.173,0.0
19.263,0.0
19.353,0.0
19.443,0.0
19.533,0.0
19.623,0.0
19.713,0.0
19.803,0.0
19.893,0.0
19.983,0.0
20.073,0.0
20.163,0.0
20.253,0.0
20.343,0.0
20.433,0.0
20.523,0.0
20.613,0.0
20.703,0.0
20.793,0.0
20.883,0.0
20.973,0.0
21.063,0.0
21.153,0.0
21.243,0.0
21.333,0.0
21.423,0.0
21.513,0.0
21.603,0.0
21.693,0.0
21.783,0.0
21.873,0.0
21.963,0.0
22.053,0.0
22.143,0.0
22.233,0.0
22.323,0.0
22.413,0.0
22.503,0.0
22.593,0.0
22.683,0.0
22.773,0.0
22.863,0.0
22.953,0.0
23.043,0.0
23.133,0.0
23.223,0.0
23.313,0.0
23.403,0.0
23.493,0.0
23.583,0.0
23.673,0.0
23.763,0.0
23.853,0.0
23.943,0.0
24.033,0.0
24.123,0.0
24.213,0.0
24.303,0.0
24.393,0.0
24.483,0.0
24.573,0.0
24.663,0.0
24.753,0.0
24.843,0.0
24.933,0.0
25.023,0.0
25.113,0.0
25.203,0.0
25.293,0.0
25.383,0.0
25.473,0.0
25.563,0.0
25.653,0.0
25.743,0.0
25.833,0.0
25.923,0.0
26.013,4.70847e-316
26.103,2.87516e-310
26.193,1.55364e-304
26.283,7.42922e-299
26.373,3.1437e-293
26.463,1.17719e-287
26.553,3.9008e-282
26.643,1.14385e-276
26.733,2.96816e-271
26.823,6.81571e-266
26.913,1.38497e-260
27.003,2.49043e-255
27.093,3.96291e-250
27.183,5.58032e-245
27.273,6.95359e-240
27.363,7.66769e-235
27.453,7.48212e-230
27.543,6.46086e-225
27.633,4.93698e-220
27.723,3.33839e-215
27.813,1.99764e-210
27.903,1.0578e-205
27.993,4.95673e-201
28.083,2.05538e-196
28.173,7.54213e-192
28.263,2.44907e-187
28.353,7.03741e-183
28.443,1.78949e-178
28.533,4.02673e-174
28.623,8.01825e-170
28.713,1.4129e-165
28.803,2.20318e-161
28.893,3.04014e-157
28.983,3.71229e-153
29.073,4.01139e-149
29.163,3.83578e-145
29.253,3.24577e-141
29.343,2.43045e-137
29.433,1.6105e-133
29.523,9.44364e-130
29.613,4.90032e-126
29.703,2.25016e-122
29.793,9.14341e-119
29.883,3.28782e-115
29.973,1.0462e-111
30.063,2.94594e-108
30.153,7.34073e-105
30.243,1.61867e-101
30.333,3.15853e-98
30.423,5.45401e-95
30.513,8.33398e-92
30.603,1.12692e-88
30.693,1.34847e-85
30.783,1.42788e-82
30.873,1.33798e-79
30.963,1.10946e-76
31.053,8.141e-74
31.143,5.28628e-71
31.233,3.03758e-68
31.323,1.54458e-65
31.413,6.95021e-63
31.503,2.76752e-60
31.593,9.75189e-58
31.683,3.04083e-55
31.773,8.39074e-53
31.863,2.04887e-50
31.953,4.42724e-48
32.043,8.46558e-46
32.133,1.43247e-43
32.223,2.14497e-41
32.313,2.84223e-39
32.403,3.33276e-37
32.493,3.45823e-35
32.583,3.17548e-33
32.673,2.58029e-31
32.763,1.85539e-29
32.853,1.18061e-27
32.943,6.64784e-26
33.033,3.31254e-24
33.123,1.46065e-22
33.213,5.69953e-21
33.303,1.96805e-19
33.393,6.01363e-18
33.483,1.62608e-16
33.573,3.89094e-15
33.663,8.23895e-14
33.753,1.54381e-12
33.843,2.55989e-11
33.933,3.75625e-10
34.023,4.87744e-09
34.113,5.60447e-08
34.203,5.69879e-07
34.293,5.12786e-06
34.383,4.08314e-05
34.473,0.000287712
34.563,0.00179402
34.653,0.0098992
34.743,0.0483369
34.833,0.208864
34.923,0.798643
35.013,2.70239
35.103,8.09183
35.193,21.4413
35.283,50.2761
35.373,104.322
35.463,191.557
35.553,311.26
35.643,447.563
35.733,569.495
35.823,641.255
35.913,638.965
36.003,563.415
36.093,439.627
36.183,303.561
36.273,185.487
36.363,100.296
36.453,47.9913
36.543,20.321
36.633,7.61435
36.723,2.52479
36.813,0.740838
36.903,0.192365
36.993,0.0442013
37.083,0.00898769
37.173,0.00161721
37.263,0.000257508
37.353,3.62843e-05
37.443,4.52432e-06
37.533,4.99221e-07
37.623,4.87458e-08
37.713,4.21198e-09
37.803,3.22063e-10
37.893,2.17922e-11
37.983,1.30487e-12
38.073,6.91412e-14
38.163,3.24199e-15
38.253,1.34522e-16
38.343,4.93945e-18
38.433,1.60498e-19
38.523,4.61494e-21
38.613,1.17427e-22
38.703,2.64407e-24
38.793,5.26848e-26
38.883,9.2897e-28
38.973,1.44952e-29
39.063,2.00148e-31
39.153,2.44559e-33
39.243,2.64436e-35
39.293,2.02825e-36

File: curve_total_fit.dat
14.943,-0.499244
15.033,-0.496068
15.123,-0.481313
15.213,-0.418837
15.303,-0.177824
15.393,0.668795
15.483,3.37523
15.573,11.2428
15.663,32.0204
15.753,81.8106
15.843,189.901
15.933,402.027
16.023,777.242
16.113,1372.88
16.203,2215.94
16.293,3268.67
16.383,4406.38
16.473,5428.73
16.563,6112.57
16.653,6295.33
16.743,6125.94
16.833,5727.34
16.923,5144.7
17.013,4440.1
17.103,3681.71
17.193,2933.13
17.283,2245.08
17.373,1697.89
17.463,3348.84
17.553,793.84
17.643,516.282
17.733,323.371
17.823,194.514
17.913,112.32
18.003,62.21
18.093,32.99
18.183,16.6839
18.273,7.97141
18.363,3.51253
18.453,1.32603
18.543,0.298414
18.633,-0.16459
18.723,-0.364621
18.813,-0.447501
18.903,-0.480439
18.993,-0.492998
19.083,-0.497592
19.173,-0.499204
19.263,-0.499747
19.353,-0.499923
19.443,-0.499977
19.533,-0.499994
19.623,-0.499998
19.713,-0.5
19.803,-0.5
19.893,-0.5
19.983,-0.5
20.073,-0.5
20.163,-0.5
20.253,-0.5
20.343,-0.5
20.433,-0.5
20.523,-0.5
20.613,-0.5
20.703,-0.5
20.793,-0.5
20.883,-0.5
20.973,-0.5
21.063,-0.5
21.153,-0.5
21.243,-0.5
21.333,-0.5
21.423,-0.5
21.513,-0.5
21.603,-0.5
21.693,-0.5
21.783,-0.5
21.873,-0.5
21.963,-0.5
22.053,-0.5
22.143,-0.5
22.233,-0.5
22.323,-0.5
22.413,-0.5
22.503,-0.5
22.593,-0.5
22.683,-0.5
22.773,-0.5
22.863,-0.5
22.953,-0.5
23.043,-0.5
23.133,-0.5
23.223,-0.5
23.313,-0.5
23.403,-0.5
23.493,-0.5
23.583,-0.5
23.673,-0.5
23.763,-0.5
23.853,-0.5
23.943,-0.5
24.033,-0.5
24.123,-0.5
24.213,-0.5
24.303,-0.5
24.393,-0.5
24.483,-0.5
24.573,-0.5
24.663,-0.5
24.753,-0.5
24.843,-0.5
24.933,-0.5
25.023,-0.5
25.113,-0.5
25.203,-0.5
25.293,-0.5
25.383,-0.5
25.473,-0.5
25.563,-0.5
25.653,-0.5
25.743,-0.5
25.833,-0.5
25.923,-0.5
26.013,-0.5
26.103,-0.5
26.193,-0.5
26.283,-0.5
26.373,-0.5
26.463,-0.5
26.553,-0.5
26.643,-0.5
26.733,-0.5
26.823,-0.5
26.913,-0.5
27.003,-0.5
27.093,-0.5
27.183,-0.5
27.273,-0.5
27.363,-0.5
27.453,-0.5
27.543,-0.5
27.633,-0.5
27.723,-0.5
27.813,-0.5
27.903,-0.5
27.993,-0.5
28.083,-0.5
28.173,-0.5
28.263,-0.5
28.353,-0.5
28.443,-0.5
28.533,-0.5
28.623,-0.5
28.713,-0.5
28.803,-0.5
28.893,-0.5
28.983,-0.5
29.073,-0.5
29.163,-0.5
29.253,-0.5
29.343,-0.5
29.433,-0.5
29.523,-0.5
29.613,-0.5
29.703,-0.5
29.793,-0.5
29.883,-0.5
29.973,-0.5
30.063,-0.5
30.153,-0.5
30.243,-0.5
30.333,-0.5
30.423,-0.5
30.513,-0.5
30.603,-0.5
30.693,-0.5
30.783,-0.5
30.873,-0.5
30.963,-0.5
31.053,-0.5
31.143,-0.5
31.233,-0.5
31.323,-0.5
31.413,-0.5
31.503,-0.5
31.593,-0.5
31.683,-0.5
31.773,-0.5
31.863,-0.5
31.953,-0.5
32.043,-0.5
32.133,-0.5
32.223,-0.5
32.313,-0.5
32.403,-0.5
32.493,-0.5
32.583,-0.5
32.673,-0.5
32.763,-0.5
32.853,-0.5
32.943,-0.5
33.033,-0.5
33.123,-0.5
33.213,-0.5
33.303,-0.5
33.393,-0.5
33.483,-0.5
33.573,-0.5
33.663,-0.5
33.753,-0.5
33.843,-0.5
33.933,-0.5
34.023,-0.5
34.113,-0.5
34.203,-0.499999
34.293,-0.499995
34.383,-0.499959
34.473,-0.499712
34.563,-0.498206
34.653,-0.490101
34.743,-0.451663
34.833,-0.291136
34.923,0.298643
35.013,2.20239
35.103,7.59183
35.193,20.9413
35.283,49.7761
35.373,103.822
35.463,191.057
35.553,310.76
35.643,447.063
35.733,568.995
35.823,640.755
35.913,638.465
36.003,562.915
36.093,439.127
36.183,303.061
36.273,184.987
36.363,99.7964
36.453,47.4913
36.543,19.821
36.633,7.11435
36.723,2.02479
36.813,0.240838
36.903,-0.307635
36.993,-0.455799
37.083,-0.491012
37.173,-0.498383
37.263,-0.496221
37.353,-0.125377
37.443,-0.499995
37.533,-0.5
37.623,-0.5
37.713,-0.5
37.803,-0.5
37.893,-0.5
37.983,-0.5
38.073,-0.5
38.163,-0.5
38.253,-0.5
38.343,-0.5
38.433,-0.5
38.523,-0.5
38.613,-0.5
38.703,-0.5
38.793,-0.5
38.883,-0.5
38.973,-0.5
39.063,-0.5
39.153,-0.5
39.243,-0.5
39.293,-0.5

File: xrd.csv
14.9326, 5.3735
14.943, 6.04189
14.9763, 8.21667
14.9799, 6.99344
15.1638, 7.91299
15.2413, 6.87578
15.3138, 5.83109
15.3263, 5.00244
15.3388, 4.49138
15.4513, 7.02568
15.4583, 8.89248
15.5799, 9.77303
15.6821, 10.2438
15.7721, 11.5963
15.827, 13.9009
15.8292, 18.8843
15.8403, 15.5335
15.8417, 21.0531
15.8535, 25.3021
15.8605, 30.3901
15.8667, 47.5456
15.8778, 45.3265
15.9028, 38.15
15.9035, 83.4156
15.916, 122.232
15.916, 107.465
15.916, 66.8249
15.9206, 58.1018
15.9316, 167.469
15.9403, 138.785
15.9403, 73.4576
15.9478, 93.2981
15.966, 224.509
15.9713, 267.097
15.9743, 402.415
15.9749, 486.724
15.9778, 306.693
15.9828, 337.193
15.9944, 196.967
16.0035, 547.427
16.016, 765.809
16.016, 674.161
16.016, 600.196
16.041, 868.616
16.1113, 1250.66
16.1192, 1009.11
16.143, 1525.52
16.1763, 1805.79
16.2191, 2061.49
16.2463, 2480.6
16.2888, 2874.71
16.2971, 4028.38
16.3191, 3371.35
16.4213, 5318.83
16.6934, 6322.13
16.9123, 5429.91
16.9991, 4595.19
17.0525, 3891.05
17.0991, 3356.63
17.1616, 2920.88
17.2255, 2607.28
17.3158, 2144.45
17.3743, 1807.34
17.3846, 1522.82
17.4235, 3953.76
17.4238, 3197.8
17.4388, 2648.61
17.4388, 5381.65
17.4513, 4649.87
17.4563, 1319.64
17.4763, 2276.76
17.4888, 1978.33
17.4888, 1152.55
17.5186, 1013.89
17.5505, 653.469
17.5561, 832.429
17.5891, 475.616
17.5922, 552.739
17.5998, 398.816
17.6048, 272.241
17.6063, 115.46
17.6068, 238.023
17.6123, 312.976
17.6177, 162.51
17.6205, 136
17.6241, 351.088
17.638, 195.606
17.638, 97.7621
17.6589, 79.215
17.663, 58.5443
17.663, 49.2751
17.663, 43.2109
17.6755, 69.5908
17.6797, 30.5077
17.6905, 36.1174
17.7255, 23.3252
17.7325, 17.8854
17.7373, 26.5986
17.738, 20.5929
17.7705, 14.6571
17.7791, 12.3301
17.8876, 10.415
17.8971, 7.13277
17.9004, 8.97859
17.9098, 8.10354
18.0262, 6.14124
18.0558, 5.3712
18.2412, 4.69055
18.2512, 7.97339
18.262, 6.4402
18.2977, 4.17242
18.4012, 5.45348
18.5179, 4.47839
18.5637, 5.16142
18.6731, 3.76478
18.9858, 3.82466
18.9873, 4.51716
19.0512, 3.46059
19.1262, 5.56448
19.1512, 4.99471
19.2137, 4.58339
33.7085, 1.89005
33.7358, 1.58896
33.7358, 1.38223
33.7383, 2.30237
33.7808, 1.1644
34.0933, 1.19239
34.305, 1.61195
34.3102, 1.35664
34.3425, 1.80072
34.3472, 1.92507
34.3883, 2.32985
34.4133, 1.25549
34.5425, 3.90742
34.5431, 3.2038
34.5716, 2.73416
34.6508, 2.10259
34.6883, 2.35863
35.029, 2.93228
35.1116, 3.49934
35.1157, 4.51596
35.1165, 5.98708
35.1597, 5.14649
35.1618, 9.55943
35.1653, 7.08776
35.17, 8.15063
35.2014, 11.5499
35.2188, 15.3793
35.2493, 22.737
35.2611, 18.5718
35.2665, 29.0446
35.2861, 34.5715
35.2959, 84.145
35.3034, 41.9028
35.3062, 50.5902
35.3336, 59.0716
35.3354, 67.2132
35.3361, 72.2616
35.3435, 105.181
35.3721, 144.41
35.3839, 130.108
35.415, 159.489
35.4479, 189.609
35.4697, 222.037
35.5122, 280.932
35.5354, 324.256
35.5914, 397.515
35.7006, 585.207
35.7164, 621.523
35.8015, 673.878
35.9405, 659.227
35.9787, 607.165
36.0342, 462.358
36.1029, 389.379
36.2065, 330.686
36.23, 270.512
36.2772, 224.3
36.3467, 168.131
36.3529, 192.009
36.3779, 152.728
36.4372, 131.489
36.4479, 111.913
36.4662, 101.416
36.5322, 85.5619
36.5329, 57.1479
36.5404, 74.4095
36.5404, 65.5467
36.5829, 47.6897
36.5836, 34.3552
36.5837, 41.1702
36.6412, 30.2146
36.6662, 27.0258
36.7037, 19.0992
36.7101, 22.3179
36.7426, 12.3441
36.7547, 16.0321
36.8073, 10.1034
36.8109, 8.39995
36.8537, 7.21756
37.1382, 6.45125
37.2132, 7.18115
37.3007, 8.21837
37.3043, 478.382
37.3132, 1734.02
37.3132, 1501.29
37.3132, 1327.48
37.3132, 1165.99
37.3132, 1026.45
37.3132, 903.607
37.3174, 405.809
37.3195, 322.175
37.3207, 371.485
37.3293, 690.772
37.3324, 162.716
37.3361, 129.87
37.3382, 796.554
37.3382, 222.574
37.3436, 87.3421
37.3439, 267.442
37.3445, 16.3137
37.3507, 60.9087
37.3507, 196.339
37.3507, 611.84
37.3507, 545.054
37.3582, 42.8411
37.3582, 107.715
37.3632, 50.0503
37.3632, 35.2432
37.3632, 10.3566
37.3686, 11.957
37.3689, 25.4475
37.3716, 72.0835
37.3757, 29.9098
37.3757, 9.29321
37.3813, 13.502
37.3894, 21.1188
37.3907, 18.0983
37.5049, 5.88136
37.507, 7.99363
37.5132, 6.91574
37.5257, 9.68988
37.5315, 4.83153
37.5565, 4.18002
37.6202, 3.66701
37.7282, 3.25439
37.743, 2.81815
37.7686, 2.46202
37.8507, 2.11073
37.8757, 1.73065
37.9257, 1.01324
37.9357, 1.41701
37.9535, 1.19785
38.1007, 1.53239
38.1945, 1.80246
38.4715, 1.94628
38.6507, 2.30349
38.7407, 1.65802
38.8257, 1.2016
38.8382, 1.38946
38.8507, 2.05145
38.9507, 2.30683
39.0182, 1.72332
39.1661, 1.24468
39.1807, 1.51913
39.2757, 1.12461
39.3007, 1.78466