Folder: gan/xiao_2004/xrd

Note: xiao_2004/xrd/summary.md
## Raman

#### Curve 1 (002)
**Type**: Loretenzian\
**amplitude:** 5444.6\
**center** 34.5\
**σ** 0.5


#### Curve 2 (004)
**Type**:Gaussian\
**amplitude** 231.9\
**center** 73.0\
**σ** 0.5\


## S<sup>2</sup>
**(002) Curve Integrated Area:** 4138.680410\
**(004) Curve Integrated Area:** 290.694200\
**S<sup>2</sup>:** 0.5435























## Reference
XRD analyzed from:
DOI:10.1016/j.matchemphys.2004.07.004

Note: README.md
## Data Repository for Disorder and Its Impact on Mobility of Undoped GaN
[![DOI](https://zenodo.org/badge/664896126.svg)](https://zenodo.org/badge/latestdoi/664896126)

File: curve_1_fit.dat
29.3029,12.7071
29.5029,13.748
29.7029,14.9221
29.9029,16.2531
30.1029,17.7703
30.3029,19.51
30.5029,21.5179
30.7029,23.852
30.9029,26.5869
31.1029,29.8196
31.3029,33.6784
31.5029,38.3358
31.7029,44.0276
31.9029,51.0832
32.1029,59.9742
32.3029,71.3934
32.5029,86.3929
32.7029,106.63
32.9029,134.833
33.1029,175.747
33.3029,238.18
33.5029,339.893
33.7029,520.617
33.9029,881.377
34.1029,1713.88
34.3029,3739.04
34.5029,5361.4
34.7029,2935.29
34.9029,1369.98
35.1029,738.394
35.3029,451.725
35.5029,302.273
35.7029,215.615
35.9029,161.222
36.1029,124.962
36.3029,99.6278
36.5029,81.2522
36.7029,67.5107
36.9029,56.9714
37.1029,48.7141
37.3029,42.126
37.5029,36.7866
37.7029,32.3998
37.9029,28.7521
38.1029,25.6866
38.3029,23.0858
38.5029,20.8605
38.7029,18.9417
38.9029,17.2757
39.1029,15.82
39.3029,14.5407
39.5029,13.4105
39.7029,12.4069
39.9029,11.5119
40.1029,10.7103
40.3029,9.98949
40.5029,9.33906
40.7029,8.75013
40.9029,8.21516
41.1029,7.72778
41.3029,7.2825
41.5029,6.87461
41.7029,6.50004
41.9029,6.15525
42.1029,5.83718
42.3029,5.54314
42.5029,5.27076
42.7029,5.01797
42.9029,4.78293
43.1029,4.56402
43.3029,4.3598
43.5029,4.16899
43.7029,3.99043
43.9029,3.82309
44.1029,3.66607
44.3029,3.51852
44.5029,3.3797
44.7029,3.24894
44.9029,3.12562
45.1029,3.00918
45.3029,2.89914
45.5029,2.79502
45.7029,2.69641
45.9029,2.60293
46.1029,2.51422
46.3029,2.42997
46.5029,2.34989
46.7029,2.2737
46.9029,2.20116
47.1029,2.13203
47.3029,2.06611
47.5029,2.0032
47.7029,1.94312
47.9029,1.8857
48.1029,1.83079
48.3029,1.77824
48.5029,1.72793
48.7029,1.67971
48.9029,1.63349
49.1029,1.58915
49.3029,1.54659
49.5029,1.50572
49.7029,1.46645
49.9029,1.42869
50.1029,1.39238
50.3029,1.35743
50.5029,1.32378
50.7029,1.29136
50.9029,1.26012
51.1029,1.23
51.3029,1.20095
51.5029,1.17292
51.7029,1.14585
51.9029,1.11972
52.1029,1.09446
52.3029,1.07005
52.5029,1.04645
52.7029,1.02362
52.9029,1.00153
53.1029,0.980148
53.3029,0.959443
53.5029,0.939386
53.7029,0.919953
53.9029,0.901115
54.1029,0.882851
54.3029,0.865136
54.5029,0.847949
54.7029,0.83127
54.9029,0.815077
55.1029,0.799353
55.3029,0.78408
55.5029,0.76924
55.7029,0.754818
55.9029,0.740797
56.1029,0.727164
56.3029,0.713903
56.5029,0.701002
56.7029,0.688447
56.9029,0.676227
57.1029,0.664329
57.3029,0.652742
57.5029,0.641456
57.7029,0.63046
57.9029,0.619744
58.1029,0.6093
58.3029,0.599117
58.5029,0.589187
58.7029,0.579502
58.9029,0.570054
59.1029,0.560835
59.3029,0.551838
59.5029,0.543056
59.7029,0.534481
59.9029,0.526109
60.1029,0.517931
60.3029,0.509942
60.5029,0.502137
60.7029,0.49451
60.9029,0.487055
61.1029,0.479768
61.3029,0.472643
61.5029,0.465675
61.7029,0.458861
61.9029,0.452194
62.1029,0.445673
62.3029,0.439291
62.5029,0.433045
62.7029,0.426931
62.9029,0.420946
63.1029,0.415087
63.3029,0.409348
63.5029,0.403728
63.7029,0.398222
63.9029,0.392829
64.1029,0.387544
64.3029,0.382366
64.5029,0.37729
64.7029,0.372315
64.9029,0.367437
65.1029,0.362655
65.3029,0.357966
65.5029,0.353367
65.7029,0.348855
65.9029,0.34443
66.1029,0.340089
66.3029,0.335829
66.5029,0.331648
66.7029,0.327545
66.9029,0.323518
67.1029,0.319565
67.3029,0.315684
67.5029,0.311872
67.7029,0.30813
67.9029,0.304455
68.1029,0.300844
68.3029,0.297298
68.5029,0.293814
68.7029,0.290391
68.9029,0.287027
69.1029,0.283722
69.3029,0.280473
69.5029,0.27728
69.7029,0.274141
69.9029,0.271055
70.1029,0.268021
70.3029,0.265037
70.5029,0.262103
70.7029,0.259218
70.9029,0.256379
71.1029,0.253588
71.3029,0.250841
71.5029,0.248139
71.7029,0.24548
71.9029,0.242864
72.1029,0.24029
72.3029,0.237756
72.5029,0.235262
72.7029,0.232807
72.9029,0.23039
73.1029,0.228011
73.3029,0.225668
73.5029,0.223362
73.7029,0.22109
73.9029,0.218853
74.1029,0.21665
74.3029,0.21448
74.5029,0.212342
74.7029,0.210236
74.9029,0.208162

File: curve_2_fit.dat
29.3029,0.0
29.5029,0.0
29.7029,0.0
29.9029,0.0
30.1029,0.0
30.3029,0.0
30.5029,0.0
30.7029,0.0
30.9029,0.0
31.1029,0.0
31.3029,0.0
31.5029,0.0
31.7029,0.0
31.9029,0.0
32.1029,0.0
32.3029,0.0
32.5029,0.0
32.7029,0.0
32.9029,0.0
33.1029,0.0
33.3029,0.0
33.5029,0.0
33.7029,0.0
33.9029,0.0
34.1029,0.0
34.3029,0.0
34.5029,0.0
34.7029,0.0
34.9029,0.0
35.1029,0.0
35.3029,0.0
35.5029,0.0
35.7029,0.0
35.9029,0.0
36.1029,0.0
36.3029,0.0
36.5029,0.0
36.7029,0.0
36.9029,0.0
37.1029,0.0
37.3029,0.0
37.5029,0.0
37.7029,0.0
37.9029,0.0
38.1029,0.0
38.3029,0.0
38.5029,0.0
38.7029,0.0
38.9029,0.0
39.1029,0.0
39.3029,0.0
39.5029,0.0
39.7029,0.0
39.9029,0.0
40.1029,0.0
40.3029,0.0
40.5029,0.0
40.7029,0.0
40.9029,0.0
41.1029,0.0
41.3029,0.0
41.5029,0.0
41.7029,0.0
41.9029,0.0
42.1029,0.0
42.3029,0.0
42.5029,0.0
42.7029,0.0
42.9029,0.0
43.1029,0.0
43.3029,0.0
43.5029,0.0
43.7029,0.0
43.9029,0.0
44.1029,0.0
44.3029,0.0
44.5029,0.0
44.7029,0.0
44.9029,0.0
45.1029,0.0
45.3029,0.0
45.5029,0.0
45.7029,0.0
45.9029,0.0
46.1029,0.0
46.3029,0.0
46.5029,0.0
46.7029,0.0
46.9029,0.0
47.1029,0.0
47.3029,0.0
47.5029,0.0
47.7029,0.0
47.9029,0.0
48.1029,0.0
48.3029,0.0
48.5029,0.0
48.7029,0.0
48.9029,0.0
49.1029,0.0
49.3029,0.0
49.5029,0.0
49.7029,0.0
49.9029,0.0
50.1029,0.0
50.3029,0.0
50.5029,0.0
50.7029,0.0
50.9029,0.0
51.1029,0.0
51.3029,0.0
51.5029,0.0
51.7029,0.0
51.9029,0.0
52.1029,0.0
52.3029,0.0
52.5029,0.0
52.7029,0.0
52.9029,0.0
53.1029,0.0
53.3029,0.0
53.5029,0.0
53.7029,1.146e-321
53.9029,3.90554e-315
54.1029,1.55579e-308
54.3029,5.28118e-302
54.5029,1.52765e-295
54.7029,3.76558e-289
54.9029,7.90955e-283
55.1029,1.41574e-276
55.3029,2.15938e-270
55.5029,2.80665e-264
55.7029,3.10856e-258
55.9029,2.93389e-252
56.1029,2.35961e-246
56.3029,1.61715e-240
56.5029,9.44438e-235
56.7029,4.70012e-229
56.9029,1.99323e-223
57.1029,7.2031e-218
57.3029,2.21816e-212
57.5029,5.82078e-207
57.7029,1.30161e-201
57.9029,2.48024e-196
58.1029,4.02736e-191
58.3029,5.57261e-186
58.5029,6.57068e-181
58.7029,6.60199e-176
58.9029,5.65266e-171
59.1029,4.12423e-166
59.3029,2.56417e-161
59.5029,1.35851e-156
59.7029,6.13326e-152
59.9029,2.35957e-147
60.1029,7.73549e-143
60.3029,2.161e-138
60.5029,5.14441e-134
60.7029,1.04359e-129
60.9029,1.804e-125
61.1029,2.65739e-121
61.3029,3.3357e-117
61.5029,3.56806e-113
61.7029,3.25229e-109
61.9029,2.52616e-105
62.1029,1.67203e-101
62.3029,9.43062e-98
62.5029,4.53262e-94
62.7029,1.8564e-90
62.9029,6.47898e-87
63.1029,1.92688e-83
63.3029,4.88332e-80
63.5029,1.0546e-76
63.7029,1.94078e-73
63.9029,3.04351e-70
64.1029,4.06713e-67
64.3029,4.63141e-64
64.5029,4.49419e-61
64.7029,3.71623e-58
64.9029,2.61858e-55
65.1029,1.57233e-52
65.3029,8.04512e-50
65.5029,3.5078e-47
65.7029,1.30332e-44
65.9029,4.12647e-42
66.1029,1.11332e-39
66.3029,2.55961e-37
66.5029,5.01466e-35
66.7029,8.37185e-33
66.9029,1.19101e-30
67.1029,1.44384e-28
67.3029,1.49155e-26
67.5029,1.31301e-24
67.7029,9.84949e-23
67.9029,6.29609e-21
68.1029,3.42958e-19
68.3029,1.59193e-17
68.5029,6.2968e-16
68.7029,2.12241e-14
68.9029,6.09607e-13
69.1029,1.49205e-11
69.3029,3.11195e-10
69.5029,5.53085e-09
69.7029,8.37655e-08
69.9029,1.08106e-06
70.1029,1.18891e-05
70.3029,0.00011142
70.5029,0.000889788
70.7029,0.00605514
70.9029,0.0351135
71.1029,0.173515
71.3029,0.730658
71.5029,2.62182
71.7029,8.01687
71.9029,20.8891
72.1029,46.3818
72.3029,87.7583
72.5029,141.495
72.7029,194.405
72.9029,227.608
73.1029,227.08
73.3029,193.056
73.5029,139.863
73.7029,86.3442
73.9029,45.4231
74.1029,20.3626
74.3029,7.77862
74.5029,2.53212
74.7029,0.702393
74.9029,0.166031

File: curve_total_fit.dat
29.3029,141.995
29.5029,148.674
29.7029,156.687
29.9029,166.451
30.1029,178.564
30.3029,193.914
30.5029,213.876
30.7029,240.666
30.9029,278.059
31.1029,332.92
31.3029,418.812
31.5029,565.539
31.7029,848.373
31.9029,1494.44
32.1029,3294.6
32.3029,6871.05
32.5029,4384.65
32.7029,1929.84
32.9029,1101.56
33.1029,798.702
33.3029,697.907
33.5029,713.512
33.7029,846.704
33.9029,1182.02
34.1029,2003.53
34.3029,4028.62
34.5029,5660.58
34.7029,3254.1
34.9029,1720.4
35.1029,1136.36
35.3029,920.372
35.5029,877.869
35.7029,959.371
35.9029,1185.26
36.1029,1655.05
36.3029,2638.69
36.5029,4790.95
36.7029,8431.53
36.9029,8324.27
37.1029,4665.97
37.3029,2532.93
37.5029,1536.97
37.7029,1032.49
37.9029,749.275
38.1029,576.186
38.3029,463.122
38.5029,385.306
38.7029,329.469
38.9029,288.026
39.1029,256.397
39.3029,231.689
39.5029,212.003
39.7029,196.051
39.9029,182.934
40.1029,172.009
40.3029,162.808
40.5029,154.981
40.7029,148.263
40.9029,142.452
41.1029,137.388
41.3029,132.947
41.5029,129.029
41.7029,125.554
41.9029,122.456
42.1029,119.682
42.3029,117.187
42.5029,114.935
42.7029,112.895
42.9029,111.04
43.1029,109.348
43.3029,107.801
43.5029,106.382
43.7029,105.077
43.9029,103.874
44.1029,102.763
44.3029,101.734
44.5029,100.78
44.7029,99.8924
44.9029,99.066
45.1029,98.2951
45.3029,97.5747
45.5029,96.9004
45.7029,96.2684
45.9029,95.6751
46.1029,95.1174
46.3029,94.5925
46.5029,94.0978
46.7029,93.631
46.9029,93.1901
47.1029,92.773
47.3029,92.3783
47.5029,92.0041
47.7029,91.6492
47.9029,91.3122
48.1029,90.9919
48.3029,90.6872
48.5029,90.3971
48.7029,90.1207
48.9029,89.8572
49.1029,89.6056
49.3029,89.3654
49.5029,89.1358
49.7029,88.9163
49.9029,88.7061
50.1029,88.5049
50.3029,88.312
50.5029,88.1271
50.7029,87.9497
50.9029,87.7793
51.1029,87.6157
51.3029,87.4585
51.5029,87.3073
51.7029,87.1618
51.9029,87.0218
52.1029,86.8869
52.3029,86.757
52.5029,86.6317
52.7029,86.5109
52.9029,86.3943
53.1029,86.2818
53.3029,86.1732
53.5029,86.0682
53.7029,85.9668
53.9029,85.8687
54.1029,85.7739
54.3029,85.6821
54.5029,85.5933
54.7029,85.5073
54.9029,85.424
55.1029,85.3432
55.3029,85.265
55.5029,85.1891
55.7029,85.1155
55.9029,85.0441
56.1029,84.9749
56.3029,84.9076
56.5029,84.8423
56.7029,84.7788
56.9029,84.7172
57.1029,84.6573
57.3029,84.599
57.5029,84.5424
57.7029,84.4873
57.9029,84.4337
58.1029,84.3815
58.3029,84.3307
58.5029,84.2813
58.7029,84.2331
58.9029,84.1862
59.1029,84.1405
59.3029,84.096
59.5029,84.0525
59.7029,84.0102
59.9029,83.9689
60.1029,83.9286
60.3029,83.8893
60.5029,83.851
60.7029,83.8136
60.9029,83.777
61.1029,83.7414
61.3029,83.7065
61.5029,83.6725
61.7029,83.6393
61.9029,83.6068
62.1029,83.575
62.3029,83.544
62.5029,83.5137
62.7029,83.484
62.9029,83.455
63.1029,83.4266
63.3029,83.3988
63.5029,83.3717
63.7029,83.3451
63.9029,83.3191
64.1029,83.2936
64.3029,83.2687
64.5029,83.2442
64.7029,83.2203
64.9029,83.1969
65.1029,83.1739
65.3029,83.1515
65.5029,83.1294
65.7029,83.1078
65.9029,83.0867
66.1029,83.0659
66.3029,83.0456
66.5029,83.0256
66.7029,83.006
66.9029,82.9868
67.1029,82.968
67.3029,82.9496
67.5029,82.9314
67.7029,82.9136
67.9029,82.8962
68.1029,82.8791
68.3029,82.8622
68.5029,82.8457
68.7029,82.8295
68.9029,82.8136
69.1029,82.798
69.3029,82.7826
69.5029,82.7675
69.7029,82.7527
69.9029,82.7382
70.1029,82.7239
70.3029,82.7099
70.5029,82.6969
70.7029,82.6884
70.9029,82.7041
71.1029,82.8294
71.3029,83.3737
71.5029,85.2521
71.7029,90.6347
71.9029,103.495
72.1029,128.975
72.3029,170.34
72.5029,224.065
72.7029,276.964
72.9029,310.155
73.1029,309.616
73.3029,275.581
73.5029,222.377
73.7029,168.848
73.9029,127.916
74.1029,102.846
74.3029,90.2514
74.5029,84.9949
74.7029,83.1554
74.9029,82.6094

File: xrd.csv
29.1688, 155.125
29.5504, 190.028
29.9538, 201.662
30.3463, 220.568
30.7388, 219.114
31.1258, 310.249
31.2621, 424.169
31.5238, 500.277
31.6873, 685.942
31.7925, 823.269
31.8345, 1031.58
31.8672, 1167.31
31.8999, 1215.79
31.9326, 1485.32
31.9408, 1539.61
31.9653, 1811.08
31.9735, 1666.14
31.9981, 1917.73
32.0144, 2231.86
32.0373, 2330.75
32.0471, 2493.63
32.0635, 2649.24
32.0798, 2755.4
32.0962, 3315.79
32.0962, 3176.18
32.0962, 3036.57
32.0962, 2898.89
32.1289, 3703.6
32.1289, 3563.99
32.1289, 3424.38
32.1616, 4335.73
32.1616, 4196.12
32.1616, 4056.51
32.1616, 3918.84
32.1779, 4797.23
32.1779, 4657.62
32.1779, 4518.01
32.1943, 5347.92
32.1943, 5208.31
32.1943, 5068.7
32.1943, 4929.09
32.2107, 5507.89
32.227, 5755.12
32.227, 5615.51
32.2434, 6126.45
32.2434, 5986.84
32.2504, 6238.23
32.2597, 6356.23
32.3906, 6513.78
32.3906, 6367.87
32.3971, 6083.99
32.4069, 6135.18
32.4233, 5867.59
32.4396, 5768.7
32.4396, 5629.09
32.4396, 5489.47
32.456, 5347.92
32.456, 5208.31
32.4723, 5114.27
32.4723, 4974.65
32.4887, 4832.13
32.4887, 4692.52
32.5214, 4498.61
32.5214, 4359
32.5214, 4219.39
32.5214, 4079.78
32.5377, 3936.29
32.5377, 3796.68
32.5541, 3695.84
32.5541, 3556.23
32.5541, 3416.62
32.5541, 3277.01
32.5868, 3032.69
32.5868, 2895.01
32.6195, 2604.16
32.6359, 2688.5
32.6522, 2497.51
32.6686, 2348.2
32.6686, 2208.59
32.6849, 2059.28
32.7013, 1917.73
32.7176, 1774.24
32.7503, 1559
32.783, 1460.11
32.8877, 1281.33
32.9139, 1116.9
32.9466, 938.504
33.1592, 906.994
33.4536, 905.54
33.7643, 1023.82
33.8052, 1155.68
33.8624, 1359.28
33.8951, 1421.33
33.9671, 1618.73
33.9933, 1783.93
34.026, 1822.71
34.0652, 2086.43
34.0914, 2148.48
34.1077, 2377.29
34.1241, 2466.48
34.1568, 2691.41
34.1802, 2852.63
34.2059, 3017.17
34.2222, 3055.96
34.2386, 3284.76
34.2549, 3373.96
34.2876, 3920.78
34.2876, 3781.16
34.2876, 3641.55
34.3072, 3981.66
34.3203, 4238.78
34.3203, 4099.17
34.3367, 4558.73
34.353, 4621.26
34.3694, 4867.04
34.3694, 4727.42
34.3857, 4998.89
34.4315, 5278.89
34.4675, 5378.95
34.4745, 5488.64
34.5384, 5293.63
34.5656, 5044.46
34.582, 4901.94
34.5984, 4715.79
34.5984, 4576.18
34.6147, 4428.81
34.6147, 4289.2
34.6311, 4128.25
34.6474, 3951.8
34.6801, 3850.97
34.6801, 3711.36
34.6801, 3571.75
34.7019, 3463.16
34.7128, 3218.84
34.7292, 2999.72
34.7374, 2577.98
34.7455, 2815.51
34.7455, 2675.9
34.7848, 2516.9
34.8191, 2354.02
34.8437, 2160.11
34.8927, 1984.63
34.9418, 1780.06
34.9745, 1671.47
35.089, 1516.34
35.1217, 1309.83
35.2231, 1198.73
35.4193, 1067.26
35.6123, 1122.23
35.7922, 1259.42
35.9427, 1436.07
35.995, 1593.13
36.0375, 1789.75
36.1029, 2032.62
36.152, 2214.4
36.1847, 2388.92
36.1847, 2127.15
36.2174, 2524.65
36.2501, 2682.69
36.2665, 2900.83
36.2992, 3168.42
36.2992, 3028.81
36.3221, 3315.01
36.3482, 3424.38
36.3809, 3920.78
36.3809, 3781.16
36.3809, 3641.55
36.3973, 4145.71
36.4137, 4607.2
36.4137, 4467.59
36.4137, 4327.98
36.4202, 4669.25
36.4464, 5006.65
36.4464, 4867.04
36.4464, 4731.3
36.4791, 5371.19
36.4791, 5231.58
36.5118, 5890.86
36.5118, 5751.25
36.5118, 5611.63
36.5183, 5951.36
36.5281, 6391.14
36.5281, 6204.99
36.5281, 6065.37
36.5445, 6662.6
36.5445, 6526.87
36.5641, 6769.25
36.5772, 7213.3
36.5772, 7073.68
36.5772, 6934.07
36.5935, 7374.24
36.6099, 7903.6
36.6099, 7763.99
36.6099, 7624.38
36.6099, 7484.76
36.6263, 8229.36
36.6263, 8089.75
36.6426, 8368.98
36.659, 8875.07
36.659, 8735.46
36.659, 8456.23
36.6753, 9063.16
36.6884, 9164.76
36.7407, 9439.34
36.7571, 9526.59
36.8062, 9200.83
36.8062, 9051.52
36.8062, 8911.91
36.8389, 8745.15
36.8389, 8605.54
36.8389, 9241.55
36.8716, 8341.83
36.8781, 8403.88
36.8879, 8031.58
36.8879, 7752.35
36.8934, 7903.6
36.9043, 7570.08
36.9043, 7430.47
36.9043, 7290.86
36.9043, 7153.19
36.937, 6984.49
36.9435, 7093.85
36.9697, 6670.36
36.9697, 6530.75
36.9697, 6391.14
36.986, 6286.43
36.986, 6146.81
36.986, 6007.2
36.986, 5821.05
36.986, 5681.44
37.0024, 5590.3
37.0188, 5448.75
37.0188, 5309.14
37.0351, 5208.31
37.0351, 5068.7
37.0351, 4929.09
37.0351, 4789.47
37.0351, 4649.86
37.0596, 4033.73
37.0678, 4362.88
37.0678, 4223.27
37.0678, 4083.66
37.1005, 3878.12
37.1087, 3977.01
37.1223, 3602.77
37.1332, 3404.99
37.1496, 3310.94
37.1496, 3171.33
37.1987, 2982.27
37.1987, 2842.66
37.2232, 2508.17
37.2314, 2609.97
37.2477, 2423.82
37.2641, 2284.21
37.2641, 2146.54
37.3131, 2042.8
37.3295, 1685.04
37.3622, 1749.03
37.3949, 1586.15
37.4848, 1346.19
37.5421, 1245.36
37.5911, 1140.17
37.6659, 925.485
37.8365, 786.288
37.9313, 642.604
38.1962, 524.515
38.5257, 410.249
38.6901, 328.476
38.9714, 344.765
39.2756, 283.102
39.6714, 244.709
39.9854, 236.565
40.3986, 199.723
40.7115, 166.759
41.0419, 169.668
41.4344, 160.942
41.7647, 128.366
71.4833, 266.814
71.7581, 255.18
72.0819, 192.936
72.3272, 203.601
72.6706, 262.742
73.0631, 304.917
73.4229, 210.388
73.6791, 170.637
74.0171, 114.404
74.4042, 98.4072
74.7869, 77.1745
74.9275, 80.9557