Folder: gan/mohanta_2013/100nm/raman

Note: mohanta_2013/100nm/raman/summary.md
## Raman

#### Curve 1 (Disordered Peak)
**Type**: Skewed Gaussian\
**amplitude:** 0.1\
**center** 550.4\
**σ** 25.0
**σ2** 13.7


#### Curve 2 (Ordered Peak)
**Type**:Skewed Loretenzian\
**amplitude** 0.4\
**center** 568.7\
**σ** 17.0\
**σ2** 12.5


## S<sup>2</sup>
**Disordered Curve Integrated Area:** 3.447126\
**Ordered Curve Integrated Area:** 8.964337\
**S<sup>2</sup>:** 0.7223




















## Reference
Data analyzed from 10.1016/j.tsf.2013.03.112

Note: README.md
## Data Repository for Disorder and Its Impact on Mobility of Undoped GaN
[![DOI](https://zenodo.org/badge/664896126.svg)](https://zenodo.org/badge/latestdoi/664896126)

File: curve_1_fit.dat
511.395,0.0209612
511.795,0.0214889
512.195,0.0220243
512.595,0.0225672
512.995,0.0231176
513.395,0.0236754
513.795,0.0242404
514.195,0.0248126
514.595,0.0253917
514.995,0.0259777
515.395,0.0265705
515.795,0.0271698
516.195,0.0277755
516.595,0.0283875
516.995,0.0290055
517.395,0.0296294
517.795,0.0302589
518.195,0.0308939
518.595,0.0315342
518.995,0.0321795
519.395,0.0328296
519.795,0.0334842
520.195,0.0341432
520.595,0.0348062
520.995,0.0354731
521.395,0.0361434
521.795,0.036817
522.195,0.0374935
522.595,0.0381727
522.995,0.0388543
523.395,0.0395379
523.795,0.0402232
524.195,0.0409099
524.595,0.0415977
524.995,0.0422863
525.395,0.0429752
525.795,0.0436642
526.195,0.0443528
526.595,0.0450408
526.995,0.0457278
527.395,0.0464134
527.795,0.0470971
528.195,0.0477788
528.595,0.0484578
528.995,0.049134
529.395,0.0498068
529.795,0.0504759
530.195,0.0511409
530.595,0.0518015
530.995,0.0524571
531.395,0.0531074
531.795,0.053752
532.195,0.0543905
532.595,0.0550225
532.995,0.0556476
533.395,0.0562654
533.795,0.0568755
534.195,0.0574775
534.595,0.058071
534.995,0.0586557
535.395,0.059231
535.795,0.0597967
536.195,0.0603523
536.595,0.0608975
536.995,0.0614318
537.395,0.0619551
537.795,0.0624667
538.195,0.0629665
538.595,0.063454
538.995,0.063929
539.395,0.064391
539.795,0.0648397
540.195,0.0652749
540.595,0.0656961
540.995,0.0661032
541.395,0.0664958
541.795,0.0668735
542.195,0.0672362
542.595,0.0675836
542.995,0.0679153
543.395,0.0682312
543.795,0.0685311
544.195,0.0688146
544.595,0.0690816
544.995,0.069332
545.395,0.0695654
545.795,0.0697817
546.195,0.0699808
546.595,0.0701625
546.995,0.0703266
547.395,0.0704731
547.795,0.0706018
548.195,0.0707127
548.595,0.0708056
548.995,0.0708805
549.395,0.0709372
549.795,0.0709759
550.195,0.0709964
550.595,0.0709958
550.995,0.0709434
551.395,0.0708309
551.795,0.0706587
552.195,0.0704272
552.595,0.0701369
552.995,0.0697887
553.395,0.0693833
553.795,0.0689219
554.195,0.0684055
554.595,0.0678354
554.995,0.0672131
555.395,0.06654
555.795,0.0658179
556.195,0.0650485
556.595,0.0642335
556.995,0.0633751
557.395,0.0624751
557.795,0.0615357
558.195,0.0605591
558.595,0.0595474
558.995,0.0585031
559.395,0.0574283
559.795,0.0563256
560.195,0.0551972
560.595,0.0540455
560.995,0.0528731
561.395,0.0516823
561.795,0.0504754
562.195,0.049255
562.595,0.0480234
562.995,0.0467828
563.395,0.0455357
563.795,0.0442843
564.195,0.0430308
564.595,0.0417774
564.995,0.040526
565.395,0.0392789
565.795,0.0380379
566.195,0.0368048
566.595,0.0355816
566.995,0.0343698
567.395,0.0331712
567.795,0.0319873
568.195,0.0308195
568.595,0.0296692
568.995,0.0285376
569.395,0.0274258
569.795,0.0263351
570.195,0.0252663
570.595,0.0242204
570.995,0.0231981
571.395,0.0222001
571.795,0.021227
572.195,0.0202794
572.595,0.0193576
572.995,0.0184622
573.395,0.0175932
573.795,0.0167509
574.195,0.0159354
574.595,0.0151468
574.995,0.014385
575.395,0.0136499
575.795,0.0129414
576.195,0.0122593
576.595,0.0116033
576.995,0.0109731
577.395,0.0103684
577.795,0.00978865
578.195,0.0092335
578.595,0.00870245
578.995,0.008195
579.395,0.0077106
579.795,0.00724868
580.195,0.00680866
580.595,0.00638993
580.995,0.00599187
581.395,0.00561385
581.795,0.00525522
582.195,0.00491533
582.595,0.00459353
582.995,0.00428916
583.395,0.00400156
583.795,0.00373009
584.195,0.00347408
584.595,0.0032329
584.995,0.00300592
585.395,0.0027925
585.795,0.00259204
586.195,0.00240393
586.595,0.00222759
586.995,0.00206243
587.395,0.00190789
587.795,0.00176344
588.195,0.00162855
588.595,0.0015027
588.995,0.0013854
589.395,0.00127617
589.795,0.00117456
590.195,0.00108013
590.595,0.000992443
590.995,0.000911104
591.395,0.000835722
591.795,0.000765927
592.195,0.000701367
592.595,0.000641704
592.995,0.000586619
593.395,0.000535808
593.795,0.000488984
594.195,0.000445873
594.595,0.000406218
594.995,0.000369777
595.395,0.00033632
595.795,0.00030563
596.195,0.000277506
596.595,0.000251756
596.995,0.000228202
597.395,0.000206677
597.795,0.000187023
598.195,0.000169095
598.595,0.000152755
598.995,0.000137878
599.395,0.000124344
599.795,0.000112044
600.195,0.000100875
600.595,9.07421e-05
600.995,8.15581e-05
601.395,7.32414e-05
601.795,6.57171e-05
602.195,5.89158e-05
602.595,5.27736e-05
602.995,4.72318e-05
603.395,4.2236e-05
603.795,3.77367e-05
604.195,3.36881e-05
604.595,3.00484e-05
604.995,2.67792e-05
605.295,2.45492e-05

File: curve_2_fit.dat
511.395,0.0084333
511.795,0.00854973
512.195,0.00866856
512.595,0.00878988
512.995,0.00891373
513.395,0.0090402
513.795,0.00916937
514.195,0.00930129
514.595,0.00943606
514.995,0.00957376
515.395,0.00971446
515.795,0.00985827
516.195,0.0100053
516.595,0.0101555
516.995,0.0103092
517.395,0.0104663
517.795,0.0106271
518.195,0.0107915
518.595,0.0109597
518.995,0.0111318
519.395,0.011308
519.795,0.0114884
520.195,0.0116731
520.595,0.0118622
520.995,0.0120559
521.395,0.0122544
521.795,0.0124577
522.195,0.0126661
522.595,0.0128796
522.995,0.0130986
523.395,0.0133231
523.795,0.0135534
524.195,0.0137896
524.595,0.014032
524.995,0.0142808
525.395,0.0145361
525.795,0.0147982
526.195,0.0150675
526.595,0.015344
526.995,0.0156281
527.395,0.01592
527.795,0.0162201
528.195,0.0165286
528.595,0.0168459
528.995,0.0171723
529.395,0.0175081
529.795,0.0178536
530.195,0.0182094
530.595,0.0185757
530.995,0.0189529
531.395,0.0193416
531.795,0.0197421
532.195,0.020155
532.595,0.0205807
532.995,0.0210198
533.395,0.0214729
533.795,0.0219404
534.195,0.022423
534.595,0.0229215
534.995,0.0234363
535.395,0.0239683
535.795,0.0245183
536.195,0.0250869
536.595,0.0256751
536.995,0.0262837
537.395,0.0269136
537.795,0.0275659
538.195,0.0282416
538.595,0.0289417
538.995,0.0296675
539.395,0.0304201
539.795,0.0312009
540.195,0.0320113
540.595,0.0328526
540.995,0.0337265
541.395,0.0346345
541.795,0.0355785
542.195,0.0365602
542.595,0.0375817
542.995,0.038645
543.395,0.0397523
543.795,0.040906
544.195,0.0421085
544.595,0.0433627
544.995,0.0446712
545.395,0.0460372
545.795,0.0474639
546.195,0.0489547
546.595,0.0505132
546.995,0.0521435
547.395,0.0538497
547.795,0.0556363
548.195,0.057508
548.595,0.05947
548.995,0.0615278
549.395,0.0636871
549.795,0.0659543
550.195,0.0683359
550.595,0.0708391
550.995,0.0734716
551.395,0.0762415
551.795,0.0791574
552.195,0.0822287
552.595,0.0854651
552.995,0.0888773
553.395,0.0924764
553.795,0.0962743
554.195,0.100284
554.595,0.104518
554.995,0.10899
555.395,0.113716
555.795,0.118711
556.195,0.123991
556.595,0.129571
556.995,0.13547
557.395,0.141704
557.795,0.14829
558.195,0.155245
558.595,0.162585
558.995,0.170324
559.395,0.178476
559.795,0.187051
560.195,0.196055
560.595,0.20549
560.995,0.215354
561.395,0.225635
561.795,0.236314
562.195,0.247359
562.595,0.258727
562.995,0.270361
563.395,0.282186
563.795,0.294111
564.195,0.306025
564.595,0.317798
564.995,0.329282
565.395,0.340311
565.795,0.350707
566.195,0.360283
566.595,0.368852
566.995,0.376229
567.395,0.382246
567.795,0.386759
568.195,0.389654
568.595,0.390857
568.995,0.389863
569.395,0.385758
569.795,0.37871
570.195,0.369038
570.595,0.357154
570.995,0.34352
571.395,0.328611
571.795,0.312877
572.195,0.296724
572.595,0.280498
572.995,0.264481
573.395,0.248889
573.795,0.233881
574.195,0.219565
574.595,0.206007
574.995,0.193241
575.395,0.181273
575.795,0.170093
576.195,0.159675
576.595,0.149987
576.995,0.14099
577.395,0.132641
577.795,0.124898
578.195,0.117718
578.595,0.111059
578.995,0.104883
579.395,0.0991504
579.795,0.0938274
580.195,0.088881
580.595,0.0842808
580.995,0.0799991
581.395,0.07601
581.795,0.0722903
582.195,0.0688182
582.595,0.0655741
582.995,0.06254
583.395,0.0596995
583.795,0.0570376
584.195,0.0545405
584.595,0.0521957
584.995,0.0499917
585.395,0.0479182
585.795,0.0459656
586.195,0.0441249
586.595,0.0423884
586.995,0.0407485
587.395,0.0391986
587.795,0.0377323
588.195,0.0363441
588.595,0.0350287
588.995,0.0337813
589.395,0.0325974
589.795,0.0314728
590.195,0.0304039
590.595,0.0293871
590.995,0.0284192
591.395,0.0274971
591.795,0.0266181
592.195,0.0257797
592.595,0.0249794
592.995,0.024215
593.395,0.0234844
593.795,0.0227857
594.195,0.0221171
594.595,0.021477
594.995,0.0208638
595.395,0.020276
595.795,0.0197122
596.195,0.0191713
596.595,0.0186519
596.995,0.0181531
597.395,0.0176737
597.795,0.0172127
598.195,0.0167693
598.595,0.0163425
598.995,0.0159316
599.395,0.0155359
599.795,0.0151544
600.195,0.0147867
600.595,0.014432
600.995,0.0140898
601.395,0.0137595
601.795,0.0134405
602.195,0.0131324
602.595,0.0128346
602.995,0.0125467
603.395,0.0122683
603.795,0.011999
604.195,0.0117383
604.595,0.011486
604.995,0.0112416
605.295,0.0110634

File: curve_total_fit.dat
511.395,0.328439
511.795,0.329084
512.195,0.329738
512.595,0.330402
512.995,0.331076
513.395,0.331761
513.795,0.332455
514.195,0.333159
514.595,0.333873
514.995,0.334596
515.395,0.33533
515.795,0.336073
516.195,0.336826
516.595,0.337588
516.995,0.33836
517.395,0.339141
517.795,0.339931
518.195,0.34073
518.595,0.341539
518.995,0.342356
519.395,0.343183
519.795,0.344018
520.195,0.344861
520.595,0.345713
520.995,0.346574
521.395,0.347443
521.795,0.34832
522.195,0.349204
522.595,0.350097
522.995,0.350998
523.395,0.351906
523.795,0.352822
524.195,0.353744
524.595,0.354675
524.995,0.355612
525.395,0.356556
525.795,0.357507
526.195,0.358465
526.595,0.35943
526.995,0.360401
527.395,0.361378
527.795,0.362362
528.195,0.363352
528.595,0.364349
528.995,0.365351
529.395,0.36636
529.795,0.367374
530.195,0.368395
530.595,0.369422
530.995,0.370455
531.395,0.371494
531.795,0.372539
532.195,0.37359
532.595,0.374648
532.995,0.375712
533.395,0.376783
533.795,0.377861
534.195,0.378945
534.595,0.380037
534.995,0.381137
535.395,0.382244
535.795,0.38336
536.195,0.384484
536.595,0.385617
536.995,0.38676
537.395,0.387914
537.795,0.389078
538.195,0.390253
538.595,0.391441
538.995,0.392641
539.395,0.393856
539.795,0.395086
540.195,0.396331
540.595,0.397594
540.995,0.398875
541.395,0.400175
541.795,0.401497
542.195,0.402841
542.595,0.40421
542.995,0.405605
543.395,0.407028
543.795,0.408482
544.195,0.409968
544.595,0.411489
544.995,0.413048
545.395,0.414648
545.795,0.41629
546.195,0.41798
546.595,0.419721
546.995,0.421515
547.395,0.423368
547.795,0.425283
548.195,0.427266
548.595,0.429321
548.995,0.431453
549.395,0.433669
549.795,0.435975
550.195,0.438377
550.595,0.44088
550.995,0.44346
551.395,0.446117
551.795,0.448861
552.195,0.451701
552.595,0.454647
552.995,0.457711
553.395,0.460905
553.795,0.464241
554.195,0.467734
554.595,0.471398
554.995,0.475248
555.395,0.479301
555.795,0.483574
556.195,0.488084
556.595,0.49285
556.995,0.49789
557.395,0.503224
557.795,0.508871
558.195,0.514849
558.595,0.521177
558.995,0.527872
559.395,0.534949
559.795,0.542421
560.195,0.550297
560.595,0.558581
560.995,0.567272
561.395,0.576363
561.795,0.585834
562.195,0.595659
562.595,0.605795
562.995,0.616188
563.395,0.626767
563.795,0.63744
564.195,0.648101
564.595,0.658621
564.995,0.668853
565.395,0.678635
565.795,0.68779
566.195,0.696133
566.595,0.703478
566.995,0.709643
567.395,0.714462
567.795,0.717791
568.195,0.719519
568.595,0.719571
568.995,0.717445
569.395,0.712229
569.795,0.70409
570.195,0.693349
570.595,0.680419
570.995,0.665763
571.395,0.649856
571.795,0.633149
572.195,0.616048
572.595,0.5989
572.995,0.581988
573.395,0.565527
573.795,0.549677
574.195,0.534545
574.595,0.520199
574.995,0.506671
575.395,0.493968
575.795,0.482079
576.195,0.47098
576.595,0.460636
576.995,0.451008
577.395,0.442054
577.795,0.433731
578.195,0.425996
578.595,0.418807
578.995,0.412123
579.395,0.405906
579.795,0.400121
580.195,0.394735
580.595,0.389716
580.995,0.385036
581.395,0.380669
581.795,0.37659
582.195,0.372778
582.595,0.369213
582.995,0.365874
583.395,0.362746
583.795,0.359813
584.195,0.357059
584.595,0.354473
584.995,0.352043
585.395,0.349756
585.795,0.347603
586.195,0.345574
586.595,0.343661
586.995,0.341856
587.395,0.340151
587.795,0.338541
588.195,0.337018
588.595,0.335576
588.995,0.334212
589.395,0.332918
589.795,0.331692
590.195,0.330529
590.595,0.329424
590.995,0.328375
591.395,0.327378
591.795,0.326429
592.195,0.325526
592.595,0.324666
592.995,0.323847
593.395,0.323065
593.795,0.32232
594.195,0.321608
594.595,0.320928
594.995,0.320278
595.395,0.319657
595.795,0.319063
596.195,0.318494
596.595,0.317949
596.995,0.317426
597.395,0.316925
597.795,0.316445
598.195,0.315983
598.595,0.31554
598.995,0.315114
599.395,0.314705
599.795,0.314311
600.195,0.313933
600.595,0.313568
600.995,0.313216
601.395,0.312878
601.795,0.312551
602.195,0.312236
602.595,0.311932
602.995,0.311639
603.395,0.311355
603.795,0.311082
604.195,0.310817
604.595,0.310561
604.995,0.310313
605.295,0.310133

File: raman_peaks.csv
508.89, 0.337201
511.395, 0.338989
513.901, 0.338472
516.405, 0.342105
518.071, 0.349905
520.573, 0.355381
523.079, 0.356248
525.791, 0.360797
527.916, 0.367665
530.376, 0.374871
533.09, 0.375848
535.594, 0.37902
538.098, 0.382191
540.81, 0.386741
542.895, 0.392227
544.768, 0.401175
546.433, 0.410473
548.097, 0.420808
549.761, 0.429876
550.59, 0.439539
552.254, 0.449183
553.084, 0.458385
554.333, 0.463889
554.744, 0.474252
556.406, 0.487008
557.233, 0.498861
557.783, 0.508991
558.053, 0.521893
558.879, 0.535704
559.704, 0.552282
560.529, 0.567477
561.358, 0.57714
562.186, 0.587494
562.592, 0.604772
562.598, 0.596474
563.004, 0.613522
563.411, 0.629648
563.416, 0.62135
563.817, 0.646235
564.032, 0.637933
564.231, 0.651758
564.641, 0.663159
565.052, 0.673868
565.463, 0.683079
566.288, 0.699426
567.324, 0.711159
568.36, 0.723583
568.783, 0.715276
569.208, 0.705585
570.475, 0.684812
570.899, 0.675121
571.126, 0.648148
571.758, 0.639144
571.764, 0.630846
572.188, 0.621155
572.194, 0.612857
572.618, 0.603167
572.623, 0.594868
573.048, 0.585178
573.053, 0.57688
573.477, 0.567189
573.483, 0.558891
573.906, 0.550123
574.33, 0.540893
574.336, 0.532595
574.347, 0.51669
574.76, 0.522443
575.057, 0.495699
575.328, 0.506757
576.045, 0.475854
576.177, 0.486454
576.26, 0.466168
576.892, 0.457856
576.898, 0.449557
577.321, 0.441711
577.744, 0.432942
578.167, 0.425096
578.591, 0.416328
579.014, 0.407559
579.3, 0.39695
580.282, 0.386555
581.542, 0.375117
582.385, 0.364611
583.225, 0.357216
584.902, 0.347959
585.742, 0.341025
588.252, 0.335898
590.761, 0.331693
593.27, 0.327028
595.779, 0.322823
598.286, 0.321384
600.794, 0.318562
603.303, 0.313897
605.393, 0.312006