Folder: gan/Sugianto_2000/130sccm

Note: Sugianto_2000/130sccm/summary.md
## Raman

#### Curve 1 (002)
**Type**: Loretenzian\
**amplitude:** 0.4\
**center** 34.6\
**σ** 0.2


#### Curve 2 (004)
**Type**:Gaussian\
**amplitude** 0.0\
**center** 73.1\
**σ** 0.1\


## S<sup>2</sup>
**(002) Curve Integrated Area:** 0.148490\
**(004) Curve Integrated Area:** 0.010411\
**S<sup>2</sup>:** 0.5422























## Reference
XRD analyzed from:
DOI:10.1016/S0022-0248(00)00706-5

Note: README.md
## Data Repository for Disorder and Its Impact on Mobility of Undoped GaN
[![DOI](https://zenodo.org/badge/664896126.svg)](https://zenodo.org/badge/latestdoi/664896126)

File: xrd.csv
32.4655, 1.05737
32.6525, 1.05747
32.8513, 1.05814
33.0321, 1.06044
33.1444, 1.05431
33.2584, 1.06169
33.4375, 1.06027
33.6433, 1.0638
33.8282, 1.06687
34.0236, 1.07476
34.1783, 1.09634
34.1946, 1.07987
34.276, 1.10543
34.2783, 1.12345
34.2923, 1.0901
34.3313, 1.14497
34.3655, 1.16508
34.3655, 1.15315
34.3704, 1.2019
34.3737, 1.18213
34.39, 1.11396
34.4144, 1.26308
34.4144, 1.24945
34.4144, 1.23581
34.4144, 1.22218
34.4144, 1.2111
34.4144, 1.131
34.4248, 1.28171
34.4632, 1.35511
34.4632, 1.34148
34.4632, 1.32784
34.4632, 1.31421
34.4632, 1.30058
34.4714, 1.37244
34.4876, 1.19406
34.4876, 1.18042
34.4876, 1.16253
34.5121, 1.40454
34.5121, 1.3909
34.5225, 1.42341
34.5756, 1.4422
34.6098, 1.26819
34.6098, 1.25456
34.6098, 1.22644
34.6146, 1.23973
34.6244, 1.28404
34.6342, 1.39176
34.6505, 1.29291
34.6586, 1.36108
34.6586, 1.34744
34.6586, 1.33381
34.6586, 1.32018
34.6586, 1.30654
34.6749, 1.37812
34.683, 1.40085
34.6928, 1.41902
34.7074, 1.43948
34.7416, 1.19269
34.7644, 1.2111
34.7807, 1.27245
34.7807, 1.25655
34.7807, 1.24291
34.7807, 1.36108
34.7807, 1.34744
34.7807, 1.33381
34.7807, 1.32018
34.7807, 1.30654
34.7807, 1.29291
34.8051, 1.229
34.8051, 1.16082
34.8051, 1.14719
34.8051, 1.13355
34.8051, 1.12035
34.8133, 1.17815
34.8621, 1.10316
34.8784, 1.21451
34.8784, 1.20087
34.9273, 1.17701
34.9273, 1.16338
34.9273, 1.14975
34.9273, 1.13611
34.9517, 1.11907
34.9552, 1.08888
35.0087, 1.06936
35.0982, 1.07987
35.2064, 1.06429
35.3913, 1.06027
35.5867, 1.06027
35.782, 1.06027
35.9774, 1.06091
36.1763, 1.06356
36.2217, 1.05771
36.3787, 1.06599
36.5391, 1.06993
71.5856, 1.06368
71.781, 1.05899
71.9715, 1.05737
72.188, 1.05715
72.3671, 1.05686
72.552, 1.0582
72.7684, 1.06137
72.9288, 1.06169
72.9533, 1.07589
73.0614, 1.0957
73.1649, 1.07504
73.1975, 1.10032
73.2219, 1.08669
73.3033, 1.06425
73.401, 1.06794
73.5068, 1.05885
73.6697, 1.06027
73.7999, 1.05544
73.9057, 1.05686