Folder: gan/Sugianto_2000/90sccm

Note: Sugianto_2000/90sccm/summary.md
## Raman

#### Curve 1 (002)
**Type**: Gaussian\
**amplitude:** 0.6\
**center** 34.6\
**σ** 0.1


#### Curve 2 (004)
**Type**:Gaussian\
**amplitude** 0.0\
**center** 73.2\
**σ** 0.2\


## S<sup>2</sup>
**(002) Curve Integrated Area:** 0.206639\
**(004) Curve Integrated Area:** 0.015792\
**S<sup>2</sup>:** 0.6054





















## Reference
XRD analyzed from:
DOI:10.1016/S0022-0248(00)00706-5

Note: README.md
## Data Repository for Disorder and Its Impact on Mobility of Undoped GaN
[![DOI](https://zenodo.org/badge/664896126.svg)](https://zenodo.org/badge/latestdoi/664896126)

File: xrd.csv
32.314, 0.0308762
32.5094, 0.0308762
32.7048, 0.0308762
32.9002, 0.0308762
33.0956, 0.0308762
33.2909, 0.0308762
33.4968, 0.0309979
33.6817, 0.0308762
33.8771, 0.0315153
34.0725, 0.0366282
34.2434, 0.0368412
34.2678, 0.0440845
34.2783, 0.0614318
34.3313, 0.0821755
34.3574, 0.0953553
34.376, 0.112561
34.4062, 0.0607013
34.4144, 0.15955
34.4144, 0.145916
34.4144, 0.132282
34.4225, 0.177161
34.4248, 0.234052
34.4388, 0.0794486
34.4632, 0.385369
34.4632, 0.371735
34.4632, 0.358101
34.4632, 0.344466
34.4632, 0.330832
34.4632, 0.317198
34.4632, 0.303563
34.4632, 0.289929
34.4632, 0.276295
34.4632, 0.26266
34.4632, 0.194488
34.4714, 0.402128
34.4714, 0.251014
34.4714, 0.211247
34.4876, 0.0981958
34.5039, 0.416899
34.5121, 0.551538
34.5121, 0.537904
34.5121, 0.52427
34.5121, 0.510635
34.5121, 0.497001
34.5121, 0.483366
34.5121, 0.469732
34.5121, 0.456098
34.5121, 0.442463
34.5121, 0.428829
34.515, 0.650631
34.5202, 0.118079
34.5225, 0.570285
34.5365, 0.232835
34.5365, 0.178298
34.5365, 0.164663
34.5365, 0.151029
34.5365, 0.137395
34.5609, 0.63164
34.5609, 0.618006
34.5609, 0.604371
34.5609, 0.590737
34.6244, 0.677009
34.6537, 0.288054
34.6586, 0.385369
34.6586, 0.371735
34.6586, 0.358101
34.6586, 0.344466
34.6586, 0.330832
34.6586, 0.317198
34.6586, 0.303563
34.6667, 0.276011
34.6733, 0.401219
34.683, 0.254139
34.6993, 0.41349
34.7074, 0.562616
34.7074, 0.548982
34.7074, 0.535347
34.7074, 0.521713
34.7074, 0.508079
34.7074, 0.494444
34.7074, 0.48081
34.7074, 0.467176
34.7074, 0.453541
34.7074, 0.439907
34.7074, 0.426273
34.7074, 0.629936
34.7074, 0.616301
34.7123, 0.578466
34.7156, 0.647547
34.7319, 0.603235
34.7319, 0.590737
34.7319, 0.669135
34.7905, 0.157846
34.8051, 0.213236
34.8051, 0.199601
34.8051, 0.185967
34.8051, 0.172333
34.8051, 0.399856
34.8051, 0.386222
34.8051, 0.372587
34.8051, 0.358953
34.8156, 0.231861
34.8296, 0.343046
34.8296, 0.329412
34.8296, 0.315777
34.8296, 0.302143
34.8296, 0.288509
34.8296, 0.274874
34.8296, 0.26124
34.8296, 0.454393
34.8296, 0.440759
34.8296, 0.427125
34.8296, 0.41349
34.8458, 0.247606
34.854, 0.12376
34.854, 0.110126
34.854, 0.0964915
34.8703, 0.140803
34.9028, 0.0675185
34.9175, 0.0835389
34.9273, 0.229427
34.9273, 0.215792
34.9273, 0.202158
34.9273, 0.188523
34.9273, 0.174889
34.9273, 0.161255
34.9598, 0.0510437
34.9761, 0.14762
34.9761, 0.133986
34.9761, 0.120352
34.9761, 0.106717
35.0249, 0.0862658
35.0494, 0.0675185
35.0656, 0.0405339
35.2301, 0.0378638
35.3082, 0.030024
35.489, 0.0308762
35.6844, 0.0308762
35.8797, 0.0308762
36.0751, 0.0308762
36.2705, 0.0368412
36.2949, 0.0266155
36.417, 0.0393977
70.809, 0.0313875
71.0141, 0.0313875
71.1802, 0.0313875
71.3797, 0.0309979
71.5807, 0.0313875
71.781, 0.0317283
71.9812, 0.0313875
72.188, 0.0308762
72.3671, 0.0308762
72.5625, 0.0315153
72.7579, 0.0362021
72.9364, 0.0447152
73.0201, 0.0529518
73.0754, 0.0583496
73.1591, 0.0631775
73.3196, 0.0539238
73.4151, 0.0443401
73.5231, 0.0402498
73.6534, 0.0320124
73.8325, 0.0308762
74.0279, 0.0306632