Folder: gan/li_2014/100_xrd

Note: README.md
## Data Repository for Disorder and Its Impact on Mobility of Undoped GaN
[![DOI](https://zenodo.org/badge/664896126.svg)](https://zenodo.org/badge/latestdoi/664896126)

File: curve_1_fit.dat
29.1813,0.00217629
29.2213,0.00223129
29.2613,0.00228839
29.3013,0.00234772
29.3413,0.00240937
29.3813,0.00247349
29.4213,0.0025402
29.4613,0.00260964
29.5013,0.00268197
29.5413,0.00275734
29.5813,0.00283593
29.6213,0.00291793
29.6613,0.00300353
29.7013,0.00309295
29.7413,0.00318642
29.7813,0.00328419
29.8213,0.00338652
29.8613,0.00349371
29.9013,0.00360605
29.9413,0.0037239
29.9813,0.00384762
30.0213,0.00397759
30.0613,0.00411426
30.1013,0.00425808
30.1413,0.00440956
30.1813,0.00456926
30.2213,0.00473779
30.2613,0.00491579
30.3013,0.005104
30.3413,0.00530321
30.3813,0.0055143
30.4213,0.00573821
30.4613,0.00597602
30.5013,0.00622889
30.5413,0.00649812
30.5813,0.00678515
30.6213,0.00709158
30.6613,0.0074192
30.7013,0.00776999
30.7413,0.00814619
30.7813,0.0085503
30.8213,0.00898515
30.8613,0.00945393
30.9013,0.00996025
30.9413,0.0105082
30.9813,0.0111025
31.0213,0.0117484
31.0613,0.0124522
31.1013,0.0132208
31.1413,0.0140625
31.1813,0.0149868
31.2213,0.0160048
31.2613,0.0171294
31.3013,0.0183762
31.3413,0.0197632
31.3813,0.0213121
31.4213,0.0230491
31.4613,0.0250054
31.5013,0.0272192
31.5413,0.0297373
31.5813,0.0326175
31.6213,0.0359317
31.6613,0.0397703
31.7013,0.044248
31.7413,0.0495124
31.7813,0.0557548
31.8213,0.063227
31.8613,0.0722649
31.9013,0.0833225
31.9413,0.0970236
31.9813,0.114239
32.0213,0.136202
32.0613,0.164687
32.1013,0.202272
32.1413,0.252706
32.1813,0.321325
32.2213,0.415163
32.2613,0.541451
32.3013,0.700913
32.3413,0.870961
32.3813,0.988899
32.4213,0.984331
32.4613,0.860411
32.5013,0.689572
32.5413,0.531989
32.5813,0.408009
32.6213,0.316082
32.6613,0.248869
32.7013,0.199432
32.7413,0.162551
32.7813,0.134567
32.8213,0.112967
32.8613,0.0960181
32.9013,0.0825159
32.9413,0.0716092
32.9813,0.0626876
33.0213,0.0553062
33.0613,0.0491356
33.1013,0.0439288
33.1413,0.0394975
33.1813,0.035697
33.2213,0.0324141
33.2613,0.02956
33.3013,0.0270636
33.3413,0.0248682
33.3813,0.0229275
33.4213,0.021204
33.4613,0.0196665
33.5013,0.0182894
33.5413,0.0170513
33.5813,0.0159341
33.6213,0.0149228
33.6613,0.0140043
33.7013,0.0131677
33.7413,0.0124036
33.7813,0.0117039
33.8213,0.0110616
33.8613,0.0104705
33.9013,0.00992546
33.9413,0.00942175
33.9813,0.00895532
34.0213,0.0085226
34.0613,0.00812042
34.1013,0.00774598
34.1413,0.00739679
34.1813,0.00707064
34.2213,0.00676555
34.2613,0.00647975
34.3013,0.00621164
34.3413,0.00595981
34.3813,0.00572295
34.4213,0.00549992
34.4613,0.00528965
34.5013,0.0050912
34.5413,0.00490369
34.5813,0.00472633
34.6213,0.00455841
34.6613,0.00439928
34.7013,0.00424832
34.7413,0.00410498
34.7813,0.00396878
34.8213,0.00383923
34.8613,0.00371592
34.9013,0.00359844
34.9413,0.00348645
34.9813,0.00337959
35.0213,0.00327757
35.0613,0.0031801
35.1013,0.0030869
35.1413,0.00299774
35.1813,0.00291239
35.2213,0.00283062
35.2613,0.00275225
35.3013,0.00267708
35.3413,0.00260495
35.3813,0.0025357
35.4213,0.00246916
35.4613,0.00240521
35.5013,0.00234371
35.5413,0.00228454
35.5813,0.00222758
35.6213,0.00217272
35.6613,0.00211986
35.7013,0.00206891
35.7413,0.00201977
35.7813,0.00197236
35.8213,0.0019266
35.8613,0.00188241
35.9013,0.00183972
35.9413,0.00179847
35.9813,0.00175859
36.0213,0.00172002
36.0613,0.00168271
36.1013,0.00164659
36.1413,0.00161163
36.1813,0.00157777
36.2213,0.00154496
36.2613,0.00151317
36.3013,0.00148234
36.3413,0.00145245
36.3813,0.00142345
36.4213,0.00139531
36.4613,0.001368
36.5013,0.00134148
36.5413,0.00131573
36.5813,0.00129071
36.6213,0.00126639
36.6613,0.00124276
36.7013,0.00121978
36.7413,0.00119743
36.7813,0.00117569
36.8213,0.00115454
36.8613,0.00113395
36.9013,0.00111391
36.9413,0.0010944
36.9813,0.00107539
37.0213,0.00105687
37.0613,0.00103883
37.1013,0.00102125
37.1413,0.00100411
37.1813,0.000987393
37.2213,0.000971093
37.2613,0.000955193
37.3013,0.000939681
37.3413,0.000924543
37.3813,0.000909768
37.4213,0.000895344
37.4613,0.00088126
37.5013,0.000867506
37.5413,0.000854072
37.5813,0.000840947
37.6213,0.000828122
37.6613,0.000815588
37.7013,0.000803337
37.7413,0.000791359
37.7813,0.000779647
37.8213,0.000768194
37.8613,0.00075699
37.9013,0.00074603
37.9413,0.000735307
37.9813,0.000724813
38.0213,0.000714541
38.0613,0.000704487
38.1013,0.000694643
38.1413,0.000685004
38.1813,0.000675565
38.2213,0.000666319
38.2613,0.000657261
38.3013,0.000648387
38.3413,0.000639691
38.3813,0.00063117
38.4213,0.000622817
38.4613,0.000614629
38.5013,0.000606601
38.5413,0.00059873
38.5813,0.00059101
38.6213,0.000583439
38.6613,0.000576013
38.7013,0.000568727
38.7413,0.000561579
38.7813,0.000554565
38.8213,0.000547681
38.8613,0.000540925
38.9013,0.000534292

File: curve_2_fit.dat
29.1813,1.49954e-20
29.2213,2.413e-20
29.2613,3.87285e-20
29.3013,6.19977e-20
29.3413,9.89903e-20
29.3813,1.57646e-19
29.4213,2.50406e-19
29.4613,3.96715e-19
29.5013,6.26881e-19
29.5413,9.88016e-19
29.5813,1.55316e-18
29.6213,2.43523e-18
29.6613,3.80834e-18
29.7013,5.94024e-18
29.7413,9.24155e-18
29.7813,1.43403e-17
29.8213,2.21944e-17
29.8613,3.42611e-17
29.9013,5.27512e-17
29.9413,8.10093e-17
29.9813,1.24082e-16
30.0213,1.89565e-16
30.0613,2.88853e-16
30.1013,4.39005e-16
30.1413,6.65479e-16
30.1813,1.00617e-15
30.2213,1.51733e-15
30.2613,2.28225e-15
30.3013,3.42387e-15
30.3413,5.12323e-15
30.3813,7.64614e-15
30.4213,1.13819e-14
30.4613,1.68989e-14
30.5013,2.5025e-14
30.5413,3.69625e-14
30.5813,5.44531e-14
30.6213,8.00121e-14
30.6613,1.17263e-13
30.7013,1.71411e-13
30.7413,2.49913e-13
30.7813,3.63423e-13
30.8213,5.27117e-13
30.8613,7.62561e-13
30.9013,1.10031e-12
30.9413,1.58353e-12
30.9813,2.27306e-12
31.0213,3.25438e-12
31.0613,4.64726e-12
31.1013,6.6191e-12
31.1413,9.40313e-12
31.1813,1.33235e-11
31.2213,1.88295e-11
31.2613,2.65417e-11
31.3013,3.73158e-11
31.3413,5.23273e-11
31.3813,7.31875e-11
31.4213,1.02098e-10
31.4613,1.42059e-10
31.5013,1.97149e-10
31.5413,2.72894e-10
31.5813,3.76759e-10
31.6213,5.18807e-10
31.6613,7.12559e-10
31.7013,9.76131e-10
31.7413,1.33373e-09
31.7813,1.81761e-09
31.8213,2.47061e-09
31.8613,3.34951e-09
31.9013,4.52929e-09
31.9413,6.10874e-09
31.9813,8.21761e-09
32.0213,1.10258e-08
32.0613,1.47554e-08
32.1013,1.96952e-08
32.1413,2.62207e-08
32.1813,3.48177e-08
32.2213,4.61136e-08
32.2613,6.09157e-08
32.3013,8.02605e-08
32.3413,1.05474e-07
32.3813,1.3825e-07
32.4213,1.8074e-07
32.4613,2.35677e-07
32.5013,3.06515e-07
32.5413,3.97612e-07
32.5813,5.14444e-07
32.6213,6.63881e-07
32.6613,8.54505e-07
32.7013,1.09701e-06
32.7413,1.40469e-06
32.7813,1.794e-06
32.8213,2.28526e-06
32.8613,2.9035e-06
32.9013,3.67942e-06
32.9413,4.65062e-06
32.9813,5.86292e-06
33.0213,7.37207e-06
33.0613,9.24565e-06
33.1013,1.15653e-05
33.1413,1.44295e-05
33.1813,1.79563e-05
33.2213,2.22871e-05
33.2613,2.75907e-05
33.3013,3.40679e-05
33.3413,4.19566e-05
33.3813,5.15379e-05
33.4213,6.31431e-05
33.4613,7.7161e-05
33.5013,9.40464e-05
33.5413,0.00011433
33.5813,0.000138627
33.6213,0.000167652
33.6613,0.000202228
33.7013,0.000243303
33.7413,0.000291962
33.7813,0.000349444
33.8213,0.000417158
33.8613,0.000496702
33.9013,0.00058988
33.9413,0.000698721
33.9813,0.000825499
34.0213,0.00097275
34.0613,0.0011433
34.1013,0.00134026
34.1413,0.00156708
34.1813,0.00182753
34.2213,0.00212575
34.2613,0.00246622
34.3013,0.00285379
34.3413,0.00329372
34.3813,0.0037916
34.4213,0.00435343
34.4613,0.00498555
34.5013,0.00569464
34.5413,0.00648772
34.5813,0.00737208
34.6213,0.00835527
34.6613,0.00944504
34.7013,0.0106492
34.7413,0.0119759
34.7813,0.0134328
34.8213,0.0150279
34.8613,0.0167689
34.9013,0.018663
34.9413,0.0207172
34.9813,0.0229379
35.0213,0.0253307
35.0613,0.0279006
35.1013,0.0306516
35.1413,0.0335865
35.1813,0.0367069
35.2213,0.0400133
35.2613,0.0435044
35.3013,0.0471774
35.3413,0.0510278
35.3813,0.0550494
35.4213,0.059234
35.4613,0.0635713
35.5013,0.0680494
35.5413,0.072654
35.5813,0.077369
35.6213,0.0821763
35.6613,0.0870561
35.7013,0.0919864
35.7413,0.096944
35.7813,0.101904
35.8213,0.10684
35.8613,0.111724
35.9013,0.116529
35.9413,0.121225
35.9813,0.125783
36.0213,0.130175
36.0613,0.13437
36.1013,0.138341
36.1413,0.14206
36.1813,0.145501
36.2213,0.148638
36.2613,0.15145
36.3013,0.153914
36.3413,0.156013
36.3813,0.157731
36.4213,0.159054
36.4613,0.159972
36.5013,0.160478
36.5413,0.160564
36.5813,0.160149
36.6213,0.159208
36.6613,0.157751
36.7013,0.155791
36.7413,0.153348
36.7813,0.150446
36.8213,0.147112
36.8613,0.143377
36.9013,0.139275
36.9413,0.134845
36.9813,0.130125
37.0213,0.125157
37.0613,0.11998
37.1013,0.114639
37.1413,0.109174
37.1813,0.103626
37.2213,0.098036
37.2613,0.0924415
37.3013,0.0868788
37.3413,0.0813814
37.3813,0.0759804
37.4213,0.0707038
37.4613,0.0655767
37.5013,0.0606207
37.5413,0.0558544
37.5813,0.0512931
37.6213,0.0469489
37.6613,0.0428309
37.7013,0.0389452
37.7413,0.0352952
37.7813,0.0318818
37.8213,0.0287034
37.8613,0.0257567
37.9013,0.0230363
37.9413,0.0205352
37.9813,0.0182453
38.0213,0.0161572
38.0613,0.014261
38.1013,0.0125457
38.1413,0.0110004
38.1813,0.00961356
38.2213,0.00837387
38.2613,0.00726997
38.3013,0.00629078
38.3413,0.00542552
38.3813,0.00466384
38.4213,0.00399586
38.4613,0.00341226
38.5013,0.00290428
38.5413,0.00246377
38.5813,0.00208318
38.6213,0.00175558
38.6613,0.00147461
38.7013,0.00123452
38.7413,0.00103011
38.7813,0.000856717
38.8213,0.000710157
38.8613,0.000586728
38.9013,0.000483152

File: curve_total_fit.dat
29.1813,0.152176
29.2213,0.152231
29.2613,0.152288
29.3013,0.152348
29.3413,0.152409
29.3813,0.152473
29.4213,0.15254
29.4613,0.15261
29.5013,0.152682
29.5413,0.152757
29.5813,0.152836
29.6213,0.152918
29.6613,0.153004
29.7013,0.153093
29.7413,0.153186
29.7813,0.153284
29.8213,0.153387
29.8613,0.153494
29.9013,0.153606
29.9413,0.153724
29.9813,0.153848
30.0213,0.153978
30.0613,0.154114
30.1013,0.154258
30.1413,0.15441
30.1813,0.154569
30.2213,0.154738
30.2613,0.154916
30.3013,0.155104
30.3413,0.155303
30.3813,0.155514
30.4213,0.155738
30.4613,0.155976
30.5013,0.156229
30.5413,0.156498
30.5813,0.156785
30.6213,0.157092
30.6613,0.157419
30.7013,0.15777
30.7413,0.158146
30.7813,0.15855
30.8213,0.158985
30.8613,0.159454
30.9013,0.15996
30.9413,0.160508
30.9813,0.161102
31.0213,0.161748
31.0613,0.162452
31.1013,0.163221
31.1413,0.164063
31.1813,0.164987
31.2213,0.166005
31.2613,0.167129
31.3013,0.168376
31.3413,0.169763
31.3813,0.171312
31.4213,0.173049
31.4613,0.175005
31.5013,0.177219
31.5413,0.179737
31.5813,0.182618
31.6213,0.185932
31.6613,0.18977
31.7013,0.194248
31.7413,0.199512
31.7813,0.205755
31.8213,0.213227
31.8613,0.222265
31.9013,0.233322
31.9413,0.247024
31.9813,0.264239
32.0213,0.286202
32.0613,0.314687
32.1013,0.352272
32.1413,0.402706
32.1813,0.471325
32.2213,0.565163
32.2613,0.691451
32.3013,0.850913
32.3413,1.02096
32.3813,1.1389
32.4213,1.13433
32.4613,1.01041
32.5013,0.839572
32.5413,0.681989
32.5813,0.558009
32.6213,0.466082
32.6613,0.39887
32.7013,0.349433
32.7413,0.312552
32.7813,0.284569
32.8213,0.262969
32.8613,0.246021
32.9013,0.23252
32.9413,0.221614
32.9813,0.212693
33.0213,0.205314
33.0613,0.199145
33.1013,0.19394
33.1413,0.189512
33.1813,0.185715
33.2213,0.182436
33.2613,0.179588
33.3013,0.177098
33.3413,0.17491
33.3813,0.172979
33.4213,0.171267
33.4613,0.169744
33.5013,0.168383
33.5413,0.167166
33.5813,0.166073
33.6213,0.16509
33.6613,0.164207
33.7013,0.163411
33.7413,0.162696
33.7813,0.162053
33.8213,0.161479
33.8613,0.160967
33.9013,0.160515
33.9413,0.16012
33.9813,0.159781
34.0213,0.159495
34.0613,0.159264
34.1013,0.159086
34.1413,0.158964
34.1813,0.158898
34.2213,0.158891
34.2613,0.158946
34.3013,0.159065
34.3413,0.159254
34.3813,0.159515
34.4213,0.159853
34.4613,0.160275
34.5013,0.160786
34.5413,0.161391
34.5813,0.162098
34.6213,0.162914
34.6613,0.163844
34.7013,0.164898
34.7413,0.166081
34.7813,0.167402
34.8213,0.168867
34.8613,0.170485
34.9013,0.172261
34.9413,0.174204
34.9813,0.176317
35.0213,0.178608
35.0613,0.181081
35.1013,0.183738
35.1413,0.186584
35.1813,0.189619
35.2213,0.192844
35.2613,0.196257
35.3013,0.199854
35.3413,0.203633
35.3813,0.207585
35.4213,0.211703
35.4613,0.215977
35.5013,0.220393
35.5413,0.224938
35.5813,0.229597
35.6213,0.234349
35.6613,0.239176
35.7013,0.244055
35.7413,0.248964
35.7813,0.253876
35.8213,0.258766
35.8613,0.263606
35.9013,0.268368
35.9413,0.273023
35.9813,0.277542
36.0213,0.281895
36.0613,0.286053
36.1013,0.289988
36.1413,0.293672
36.1813,0.297078
36.2213,0.300183
36.2613,0.302963
36.3013,0.305397
36.3413,0.307466
36.3813,0.309154
36.4213,0.310449
36.4613,0.31134
36.5013,0.31182
36.5413,0.31188
36.5813,0.31144
36.6213,0.310475
36.6613,0.308994
36.7013,0.307011
36.7413,0.304546
36.7813,0.301622
36.8213,0.298266
36.8613,0.294511
36.9013,0.290389
36.9413,0.28594
36.9813,0.281201
37.0213,0.276213
37.0613,0.271019
37.1013,0.26566
37.1413,0.260178
37.1813,0.254614
37.2213,0.249007
37.2613,0.243397
37.3013,0.237818
37.3413,0.232306
37.3813,0.22689
37.4213,0.221599
37.4613,0.216458
37.5013,0.211488
37.5413,0.206709
37.5813,0.202134
37.6213,0.197777
37.6613,0.193647
37.7013,0.189749
37.7413,0.186087
37.7813,0.182661
37.8213,0.179472
37.8613,0.176514
37.9013,0.173782
37.9413,0.171271
37.9813,0.16897
38.0213,0.166872
38.0613,0.164965
38.1013,0.16324
38.1413,0.161685
38.1813,0.160289
38.2213,0.15904
38.2613,0.157927
38.3013,0.156939
38.3413,0.156065
38.3813,0.155295
38.4213,0.154619
38.4613,0.154027
38.5013,0.153511
38.5413,0.153063
38.5813,0.152674
38.6213,0.152339
38.6613,0.152051
38.7013,0.151803
38.7413,0.151592
38.7813,0.151411
38.8213,0.151258
38.8613,0.151128
38.9013,0.151017

File: xrd.csv
28.7739, 0.135348
29.1813, 0.138652
29.5047, 0.134428
29.9239, 0.140281
30.2963, 0.142759
30.685, 0.149787
31.0512, 0.162387
31.4169, 0.175447
31.8043, 0.200541
32.0247, 0.2846
32.1181, 0.372465
32.1832, 0.456989
32.2044, 0.530937
32.2513, 0.627124
32.2785, 0.738392
32.3137, 0.897427
32.3651, 0.991019
32.3661, 0.807595
32.3797, 1.08047
32.4137, 1.13603
32.5872, 0.570942
32.5948, 0.767268
32.5994, 0.86371
32.6049, 0.666577
32.6051, 0.985214
32.6241, 0.501836
32.6691, 0.427714
32.7642, 0.340637
32.8986, 0.245836
33.177, 0.217656
33.5125, 0.208994
33.8934, 0.202644
34.2742, 0.196712
34.5655, 0.151495
34.665, 0.222106
35.0023, 0.222476
35.2588, 0.225198
35.5248, 0.233835
35.8294, 0.263043
36.1612, 0.280729
36.5254, 0.307775
36.8688, 0.281088
37.1625, 0.257315
37.4738, 0.223651
37.7609, 0.190263
38.0153, 0.149657
38.3282, 0.165018
38.6286, 0.14267
38.9031, 0.133815