Folder: gan/li_2014/200_xrd

Note: li_2014/200_xrd/summary.md
## XRD

#### Curve 1 (10-10) 
**Type**: Loretenzian\
**amplitude:** 1.2\
**center** 32.4\
**σ** 0.3


#### Curve 2 (10-11)
**Type**:Skewed Gaussian\
**amplitude** 0.3\
**center** 36.6\
**σ** 0.6\
**σ2** 0.5


## S<sup>2</sup>
**(10-10) Curve Integrated Area:** 0.556299\
**(10-11) Curve Integrated Area:** 0.359689\
**S<sup>2</sup>:** 0.7540


















## Reference
XRD analyzed from:
DOI:10.1007/s10854-014-1742-4

Note: README.md
## Data Repository for Disorder and Its Impact on Mobility of Undoped GaN
[![DOI](https://zenodo.org/badge/664896126.svg)](https://zenodo.org/badge/latestdoi/664896126)

File: curve_1_fit.dat
30.7028,0.00971265
30.7428,0.0101831
30.7828,0.0106884
30.8228,0.0112322
30.8628,0.0118184
30.9028,0.0124516
30.9428,0.0131368
30.9828,0.01388
31.0228,0.0146878
31.0628,0.0155678
31.1028,0.016529
31.1428,0.0175816
31.1828,0.0187375
31.2228,0.0200104
31.2628,0.0214168
31.3028,0.0229758
31.3428,0.0247101
31.3828,0.0266468
31.4228,0.0288184
31.4628,0.0312641
31.5028,0.0340315
31.5428,0.0371789
31.5828,0.0407784
31.6228,0.0449194
31.6628,0.0497146
31.7028,0.0553067
31.7428,0.0618789
31.7828,0.0696687
31.8228,0.0789881
31.8628,0.0902522
31.9028,0.104021
31.9428,0.121062
31.9828,0.14244
32.0228,0.169659
32.0628,0.204864
32.1028,0.251139
32.1428,0.312905
32.1828,0.396306
32.2228,0.509116
32.2628,0.658541
32.3028,0.842979
32.3428,1.03362
32.3828,1.15995
32.4228,1.14918
32.4628,1.00836
32.5028,0.815218
32.5428,0.634895
32.5828,0.490942
32.6228,0.382823
32.6628,0.302948
32.7028,0.243721
32.7428,0.199257
32.7828,0.165353
32.8228,0.139079
32.8628,0.118398
32.9028,0.101881
32.9428,0.0885097
32.9828,0.0775528
33.0228,0.0684739
33.0628,0.0608746
33.1028,0.0544551
33.1428,0.0489866
33.1828,0.0442925
33.2228,0.0402349
33.2628,0.0367049
33.3028,0.0336156
33.3428,0.0308973
33.3828,0.0284934
33.4228,0.0263574
33.4628,0.0244514
33.5028,0.0227436
33.5428,0.0212076
33.5828,0.0198214
33.6228,0.018566
33.6628,0.0174257
33.7028,0.0163868
33.7428,0.0154377
33.7828,0.0145685
33.8228,0.0137704
33.8628,0.0130358
33.9028,0.0123583
33.9428,0.0117322
33.9828,0.0111523
34.0228,0.0106142
34.0628,0.010114
34.1028,0.00964829
34.1428,0.00921394
34.1828,0.00880819
34.2228,0.00842861
34.2628,0.00807299
34.3028,0.00773937
34.3428,0.00742596
34.3828,0.00713118
34.4228,0.00685357
34.4628,0.00659183
34.5028,0.00634478
34.5428,0.00611134
34.5828,0.00589053
34.6228,0.00568146
34.6628,0.0054833
34.7028,0.00529532
34.7428,0.00511683
34.7828,0.0049472
34.8228,0.00478586
34.8628,0.00463227
34.9028,0.00448595
34.9428,0.00434645
34.9828,0.00421334
35.0228,0.00408626
35.0628,0.00396483
35.1028,0.00384872
35.1428,0.00373764
35.1828,0.0036313
35.2228,0.00352942
35.2628,0.00343177
35.3028,0.00333811
35.3428,0.00324823
35.3828,0.00316193
35.4228,0.00307902
35.4628,0.00299933
35.5028,0.00292269
35.5428,0.00284894
35.5828,0.00277796
35.6228,0.00270959
35.6628,0.00264371
35.7028,0.0025802
35.7428,0.00251895
35.7828,0.00245986
35.8228,0.00240282
35.8628,0.00234774
35.9028,0.00229453
35.9428,0.00224311
35.9828,0.0021934
36.0228,0.00214532
36.0628,0.0020988
36.1028,0.00205378
36.1428,0.00201019
36.1828,0.00196798
36.2228,0.00192707
36.2628,0.00188743
36.3028,0.00184901
36.3428,0.00181174
36.3828,0.00177558
36.4228,0.0017405
36.4628,0.00170645
36.5028,0.00167338
36.5428,0.00164127
36.5828,0.00161007
36.6228,0.00157976
36.6628,0.00155029
36.7028,0.00152164
36.7428,0.00149377
36.7828,0.00146666
36.8228,0.00144029
36.8628,0.00141461
36.9028,0.00138962
36.9428,0.00136529
36.9828,0.00134159
37.0228,0.0013185
37.0628,0.001296
37.1028,0.00127407
37.1428,0.00125269
37.1828,0.00123185
37.2228,0.00121152
37.2628,0.00119169
37.3028,0.00117234
37.3428,0.00115347
37.3828,0.00113504
37.4228,0.00111705
37.4628,0.00109948
37.5028,0.00108233
37.5428,0.00106558
37.5828,0.00104921
37.6228,0.00103321
37.6628,0.00101758
37.7028,0.0010023
37.7428,0.000987359
37.7828,0.000972751
37.8228,0.000958465
37.8628,0.000944492
37.9028,0.000930822
37.9428,0.000917446
37.9828,0.000904357
38.0228,0.000891545
38.0628,0.000879004
38.1028,0.000866726
38.1428,0.000854703
38.1828,0.000842928
38.2228,0.000831395
38.2628,0.000820097
38.3028,0.000809028
38.3428,0.000798181
38.3828,0.000787551
38.4228,0.000777132
38.4628,0.000766918
38.5028,0.000756904
38.5428,0.000747085
38.5828,0.000737456
38.6228,0.000728011
38.6628,0.000718747
38.7028,0.000709659
38.7428,0.000700742
38.7828,0.000691992
38.8228,0.000683405
38.8628,0.000674976
38.9028,0.000666703
38.9428,0.00065858
38.9828,0.000650605
39.0228,0.000642774
39.0628,0.000635084
39.1028,0.000627531
39.1428,0.000620112
39.1828,0.000612823
39.2228,0.000605662
39.2628,0.000598626
39.3028,0.000591712
39.3428,0.000584917
39.3828,0.000578238
39.4228,0.000571673
39.4628,0.00056522
39.5028,0.000558874
39.5428,0.000552635
39.5828,0.0005465
39.6228,0.000540467
39.6628,0.000534533
39.7028,0.000528696
39.7428,0.000522954
39.7828,0.000517305
39.8228,0.000511747
39.8628,0.000506279
39.9028,0.000500897
39.9428,0.000495601
39.9828,0.000490388
40.0228,0.000485257
40.0628,0.000480206
40.1028,0.000475234
40.1428,0.000470338
40.1828,0.000465518
40.2228,0.000460772
40.2628,0.000456097
40.3028,0.000451494
40.3228,0.000449218

File: curve_2_fit.dat
30.7028,2.0779e-23
30.7428,4.13382e-23
30.7828,8.18552e-23
30.8228,1.61327e-22
30.8628,3.16472e-22
30.9028,6.17917e-22
30.9428,1.20086e-21
30.9828,2.32285e-21
31.0228,4.47214e-21
31.0628,8.56994e-21
31.1028,1.63458e-20
31.1428,3.10315e-20
31.1828,5.86362e-20
31.2228,1.1028e-19
31.2628,2.06439e-19
31.3028,3.84641e-19
31.3428,7.13322e-19
31.3828,1.31669e-18
31.4228,2.41906e-18
31.4628,4.42362e-18
31.5028,8.05147e-18
31.5428,1.45861e-17
31.5828,2.63009e-17
31.6228,4.72029e-17
31.6628,8.43207e-17
31.7028,1.49922e-16
31.7428,2.65317e-16
31.7828,4.67337e-16
31.8228,8.19338e-16
31.8628,1.42976e-15
31.9028,2.4833e-15
31.9428,4.29301e-15
31.9828,7.38689e-15
32.0228,1.26511e-14
32.0628,2.15656e-14
32.1028,3.659e-14
32.1428,6.17917e-14
32.1828,1.03864e-13
32.2228,1.73766e-13
32.2628,2.89356e-13
32.3028,4.79587e-13
32.3428,7.91169e-13
32.3828,1.29909e-12
32.4228,2.12311e-12
32.4628,3.45363e-12
32.5028,5.59171e-12
32.5428,9.01115e-12
32.5828,1.44538e-11
32.6228,2.30756e-11
32.6628,3.66682e-11
32.7028,5.79953e-11
32.7428,9.12983e-11
32.7828,1.43054e-10
32.8228,2.23102e-10
32.8628,3.46317e-10
32.9028,5.35072e-10
32.9428,8.22842e-10
32.9828,1.25947e-09
33.0228,1.91878e-09
33.0628,2.90958e-09
33.1028,4.3914e-09
33.1428,6.59693e-09
33.1828,9.86387e-09
33.2228,1.46798e-08
33.2628,2.1745e-08
33.3028,3.20601e-08
33.3428,4.70477e-08
33.3828,6.87192e-08
33.4228,9.99044e-08
33.4628,1.44563e-07
33.5028,2.08209e-07
33.5428,2.98474e-07
33.5828,4.25873e-07
33.6228,6.04813e-07
33.6628,8.54927e-07
33.7028,1.20283e-06
33.7428,1.6844e-06
33.7828,2.34776e-06
33.8228,3.25709e-06
33.8628,4.4975e-06
33.9028,6.18131e-06
33.9428,8.45583e-06
33.9828,1.15133e-05
34.0228,1.5603e-05
34.0628,2.10467e-05
34.1028,2.82571e-05
34.1428,3.77605e-05
34.1828,5.02245e-05
34.2228,6.64904e-05
34.2628,8.76132e-05
34.3028,0.000114907
34.3428,0.00015
34.3828,0.000194896
34.4228,0.000252047
34.4628,0.000324434
34.5028,0.00041566
34.5428,0.00053005
34.5828,0.000672763
34.6228,0.000849913
34.6628,0.0010687
34.7028,0.00133752
34.7428,0.00166615
34.7828,0.00206582
34.8228,0.00254941
34.8628,0.0031315
34.9028,0.00382854
34.9428,0.00465887
34.9828,0.0056428
35.0228,0.00680261
35.0628,0.00816251
35.1028,0.00974851
35.1428,0.0115883
35.1828,0.013711
35.2228,0.0161467
35.2628,0.0189263
35.3028,0.0220808
35.3428,0.0256407
35.3828,0.0296355
35.4228,0.0340928
35.4628,0.0390372
35.5028,0.04449
35.5428,0.0504675
35.5828,0.0569809
35.6228,0.0640343
35.6628,0.0716248
35.7028,0.0797409
35.7428,0.088362
35.7828,0.0974578
35.8228,0.106988
35.8628,0.116901
35.9028,0.127137
35.9428,0.137623
35.9828,0.148278
36.0228,0.159011
36.0628,0.169726
36.1028,0.180316
36.1428,0.190672
36.1828,0.200681
36.2228,0.210229
36.2628,0.219203
36.3028,0.227492
36.3428,0.234992
36.3828,0.241606
36.4228,0.247246
36.4628,0.251835
36.5028,0.255312
36.5428,0.257628
36.5828,0.25875
36.6228,0.258616
36.6628,0.257007
36.7028,0.253924
36.7428,0.249421
36.7828,0.243575
36.8228,0.236483
36.8628,0.228265
36.9028,0.219052
36.9428,0.20899
36.9828,0.198232
37.0228,0.186935
37.0628,0.175258
37.1028,0.163356
37.1428,0.151378
37.1828,0.139463
37.2228,0.12774
37.2628,0.116322
37.3028,0.10531
37.3428,0.094786
37.3828,0.0848183
37.4228,0.075458
37.4628,0.0667406
37.5028,0.0586875
37.5428,0.0513062
37.5828,0.0445928
37.6228,0.0385327
37.6628,0.0331027
37.7028,0.0282727
37.7428,0.0240071
37.7828,0.0202667
37.8228,0.0170097
37.8628,0.0141932
37.9028,0.0117742
37.9428,0.00971081
37.9828,0.00796247
38.0228,0.00649098
38.0628,0.00526068
38.1028,0.00423881
38.1428,0.00339559
38.1828,0.00270431
38.2228,0.00214125
38.2628,0.00168558
38.3028,0.00131916
38.3428,0.00102641
38.3828,0.00079398
38.4228,0.000610618
38.4628,0.000466874
38.5028,0.000354894
38.5428,0.000268206
38.5828,0.000201515
38.6228,0.000150528
38.6628,0.000111788
38.7028,8.25359e-05
38.7428,6.05845e-05
38.7828,4.42129e-05
38.8228,3.2078e-05
38.8628,2.31385e-05
38.9028,1.65933e-05
38.9428,1.18304e-05
38.9828,8.38563e-06
39.0228,5.90939e-06
39.0628,4.14018e-06
39.1028,2.8838e-06
39.1428,1.99701e-06
39.1828,1.37489e-06
39.2228,9.41071e-07
39.2628,6.40395e-07
39.3028,4.33255e-07
39.3428,2.91412e-07
39.3828,1.94869e-07
39.4228,1.29553e-07
39.4628,8.56291e-08
39.5028,5.62685e-08
39.5428,3.67603e-08
39.5828,2.38761e-08
39.6228,1.54176e-08
39.6628,9.89782e-09
39.7028,6.31731e-09
39.7428,4.00862e-09
39.7828,2.52888e-09
39.8228,1.5861e-09
39.8628,9.89013e-10
39.9028,6.13118e-10
39.9428,3.77881e-10
39.9828,2.31546e-10
40.0228,1.41055e-10
40.0628,8.54298e-11
40.1028,5.14399e-11
40.1428,3.07936e-11
40.1828,1.8327e-11
40.2228,1.0844e-11
40.2628,6.37912e-12
40.3028,3.73079e-12
40.3228,2.8469e-12

File: curve_total_fit.dat
30.7028,1.21058
30.7428,1.21115
30.7828,1.21176
30.8228,1.21242
30.8628,1.21313
30.9028,1.21391
30.9428,1.21474
30.9828,1.21565
31.0228,1.21664
31.0628,1.21772
31.1028,1.21889
31.1428,1.22018
31.1828,1.22159
31.2228,1.22313
31.2628,1.22483
31.3028,1.22671
31.3428,1.22879
31.3828,1.2311
31.4228,1.23367
31.4628,1.23655
31.5028,1.23978
31.5428,1.24342
31.5828,1.24755
31.6228,1.25226
31.6628,1.25766
31.7028,1.2639
31.7428,1.27116
31.7828,1.27968
31.8228,1.28978
31.8628,1.30187
31.9028,1.31652
31.9428,1.33449
31.9828,1.35684
32.0228,1.3851
32.0628,1.42139
32.1028,1.46882
32.1428,1.53179
32.1828,1.61646
32.2228,1.73059
32.2628,1.88141
32.3028,2.0673
32.3428,2.25946
32.3828,2.38736
32.4228,2.37824
32.4628,2.23913
32.5028,2.04776
32.5428,1.86928
32.5828,1.72722
32.6228,1.62107
32.6628,1.54322
32.7028,1.48608
32.7428,1.44376
32.7828,1.41205
32.8228,1.38803
32.8628,1.36966
32.9028,1.35549
32.9428,1.34452
32.9828,1.33601
33.0228,1.32941
33.0628,1.32433
33.1028,1.32046
33.1428,1.31757
33.1828,1.31547
33.2228,1.31402
33.2628,1.31311
33.3028,1.31265
33.3428,1.31256
33.3828,1.31278
33.4228,1.31325
33.4628,1.31393
33.5028,1.31479
33.5428,1.31579
33.5828,1.31689
33.6228,1.31809
33.6628,1.31935
33.7028,1.32065
33.7428,1.32198
33.7828,1.32331
33.8228,1.32464
33.8628,1.32595
33.9028,1.32723
33.9428,1.32846
33.9828,1.32964
34.0228,1.33075
34.0628,1.33179
34.1028,1.33275
34.1428,1.33362
34.1828,1.3344
34.2228,1.33507
34.2628,1.33565
34.3028,1.33611
34.3428,1.33647
34.3828,1.33671
34.4228,1.33684
34.4628,1.33685
34.5028,1.33676
34.5428,1.33655
34.5828,1.33623
34.6228,1.3358
34.6628,1.33527
34.7028,1.33465
34.7428,1.33395
34.7828,1.33318
34.8228,1.33236
34.8628,1.33151
34.9028,1.33066
34.9428,1.32981
34.9828,1.329
35.0228,1.32825
35.0628,1.3276
35.1028,1.32707
35.1428,1.3267
35.1828,1.32653
35.2228,1.32659
35.2628,1.32692
35.3028,1.32756
35.3428,1.32855
35.3828,1.32991
35.4228,1.3317
35.4628,1.33393
35.5028,1.33664
35.5428,1.33986
35.5828,1.34359
35.6228,1.34785
35.6628,1.35265
35.7028,1.35798
35.7428,1.36382
35.7828,1.37015
35.8228,1.37694
35.8628,1.38413
35.9028,1.39168
35.9428,1.39952
35.9828,1.40757
36.0228,1.41575
36.0628,1.42395
36.1028,1.43208
36.1428,1.44004
36.1828,1.44771
36.2228,1.45497
36.2628,1.46173
36.3028,1.46787
36.3428,1.47329
36.3828,1.47789
36.4228,1.48158
36.4628,1.48429
36.5028,1.48597
36.5428,1.48655
36.5828,1.48601
36.6228,1.48428
36.6628,1.48114
36.7028,1.4766
36.7428,1.47071
36.7828,1.46354
36.8228,1.45519
36.8628,1.44578
36.9028,1.43543
36.9428,1.4243
36.9828,1.41252
37.0228,1.40027
37.0628,1.38769
37.1028,1.37494
37.1428,1.36216
37.1828,1.34949
37.2228,1.33706
37.2628,1.32499
37.3028,1.31336
37.3428,1.30226
37.3828,1.29175
37.4228,1.28189
37.4628,1.27271
37.5028,1.26422
37.5428,1.25644
37.5828,1.24935
37.6228,1.24295
37.6628,1.2372
37.7028,1.23207
37.7428,1.22754
37.7828,1.22354
37.8228,1.22006
37.8628,1.21703
37.9028,1.21441
37.9428,1.21217
37.9828,1.21026
38.0228,1.20863
38.0628,1.20726
38.1028,1.20612
38.1428,1.20516
38.1828,1.20436
38.2228,1.2037
38.2628,1.20316
38.3028,1.20271
38.3428,1.20234
38.3828,1.20204
38.4228,1.2018
38.4628,1.2016
38.5028,1.20144
38.5428,1.2013
38.5828,1.20119
38.6228,1.2011
38.6628,1.20103
38.7028,1.20097
38.7428,1.20092
38.7828,1.20087
38.8228,1.20083
38.8628,1.2008
38.9028,1.20078
38.9428,1.20075
38.9828,1.20073
39.0228,1.20071
39.0628,1.20069
39.1028,1.20068
39.1428,1.20066
39.1828,1.20065
39.2228,1.20064
39.2628,1.20063
39.3028,1.20062
39.3428,1.20061
39.3828,1.2006
39.4228,1.20059
39.4628,1.20058
39.5028,1.20057
39.5428,1.20056
39.5828,1.20055
39.6228,1.20055
39.6628,1.20054
39.7028,1.20053
39.7428,1.20053
39.7828,1.20052
39.8228,1.20051
39.8628,1.20051
39.9028,1.2005
39.9428,1.2005
39.9828,1.20049
40.0228,1.20049
40.0628,1.20048
40.1028,1.20048
40.1428,1.20047
40.1828,1.20047
40.2228,1.20046
40.2628,1.20046
40.3028,1.20045
40.3228,1.20045

File: xrd.csv
30.3312, 1.20766
30.7028, 1.23205
31.1034, 1.24536
31.4713, 1.26708
31.7481, 1.26765
31.8559, 1.33864
32.0566, 1.36088
32.111, 1.44093
32.1389, 1.5594
32.163, 1.6628
32.1943, 1.76615
32.2573, 1.86324
32.2773, 1.95156
32.3249, 2.05513
32.3426, 2.15148
32.3445, 2.23473
32.3521, 2.39302
32.3761, 2.306
32.6047, 1.81576
32.6334, 1.71765
32.6388, 1.64805
32.6601, 1.57127
32.733, 1.49156
32.8395, 1.40693
33.111, 1.33973
33.446, 1.35456
33.6106, 1.3094
33.9612, 1.32019
34.3199, 1.32316
34.7223, 1.32802
35.0803, 1.3524
35.4019, 1.31932
35.6625, 1.37014
35.994, 1.39933
36.3288, 1.44138
36.4826, 1.4985
36.7745, 1.49822
36.9474, 1.44437
37.0027, 1.37206
37.2214, 1.30985
37.4957, 1.29263
37.6298, 1.23805
37.9512, 1.2405
38.2483, 1.20779
38.5938, 1.2062
39.0127, 1.19633
39.3641, 1.18551
39.7147, 1.19603
40.1245, 1.21442
40.3321, 1.21501