Folder: gan/li_2014/300_xrd

Note: li_2014/300_xrd/summary.md
## XRD

#### Curve 1 (10-10)
**Type**: Loretenzian\
**amplitude:** 2.2\
**center** 32.3\
**σ** 0.4


#### Curve 2 (10-11)
**Type**:Loretenzian\
**amplitude** 0.8\
**center** 36.6\
**σ** 0.8\


## S<sup>2</sup>
**(10-10) Curve Integrated Area:** 1.406626\
**(10-11) Curve Integrated Area:** 0.908815\
**S<sup>2</sup>:** 0.7530



















## Reference
XRD analyzed from:
DOI:10.1007/s10854-014-1742-4

Note: README.md
## Data Repository for Disorder and Its Impact on Mobility of Undoped GaN
[![DOI](https://zenodo.org/badge/664896126.svg)](https://zenodo.org/badge/latestdoi/664896126)

File: curve_1_fit.dat
29.4225,0.0116335
29.4625,0.0119593
29.5025,0.012299
29.5425,0.0126534
29.5825,0.0130232
29.6225,0.0134095
29.6625,0.0138132
29.7025,0.0142354
29.7425,0.0146771
29.7825,0.0151397
29.8225,0.0156245
29.8625,0.0161329
29.9025,0.0166664
29.9425,0.0172267
29.9825,0.0178158
30.0225,0.0184354
30.0625,0.0190879
30.1025,0.0197756
30.1425,0.0205009
30.1825,0.0212668
30.2225,0.0220762
30.2625,0.0229326
30.3025,0.0238396
30.3425,0.0248013
30.3825,0.0258222
30.4225,0.0269071
30.4625,0.0280615
30.5025,0.0292916
30.5425,0.0306039
30.5825,0.032006
30.6225,0.0335061
30.6625,0.0351137
30.7025,0.0368391
30.7425,0.038694
30.7825,0.0406918
30.8225,0.0428473
30.8625,0.0451775
30.9025,0.0477015
30.9425,0.0504414
30.9825,0.0534223
31.0225,0.0566729
31.0625,0.0602266
31.1025,0.0641217
31.1425,0.0684031
31.1825,0.0731227
31.2225,0.0783418
31.2625,0.0841324
31.3025,0.0905797
31.3425,0.0977851
31.3825,0.10587
31.4225,0.114981
31.4625,0.125296
31.5025,0.137029
31.5425,0.150448
31.5825,0.16588
31.6225,0.183736
31.6625,0.20453
31.7025,0.228914
31.7425,0.257722
31.7825,0.292023
31.8225,0.333207
31.8625,0.383081
31.9025,0.444008
31.9425,0.519068
31.9825,0.612232
32.0225,0.728476
32.0625,0.873659
32.1025,1.05373
32.1425,1.27236
32.1825,1.52582
32.2225,1.7942
32.2625,2.03319
32.3025,2.17937
32.3425,2.1816
32.3825,2.03902
32.4225,1.80178
32.4625,1.53351
32.5025,1.27924
32.5425,1.05949
32.5825,0.878339
32.6225,0.732229
32.6625,0.615235
32.7025,0.521481
32.7425,0.445959
32.7825,0.384671
32.8225,0.334514
32.8625,0.293107
32.9025,0.258628
32.9425,0.229679
32.9825,0.20518
33.0225,0.184292
33.0625,0.166359
33.1025,0.150863
33.1425,0.137391
33.1825,0.125613
33.2225,0.115261
33.2625,0.106118
33.3025,0.0980054
33.3425,0.0907764
33.3825,0.0843087
33.4225,0.0785005
33.4625,0.073266
33.5025,0.0685328
33.5425,0.0642396
33.5825,0.060334
33.6225,0.056771
33.6625,0.0535121
33.7025,0.0505239
33.7425,0.0477774
33.7825,0.0452475
33.8225,0.042912
33.8625,0.0407517
33.9025,0.0387496
33.9425,0.0368907
33.9825,0.0351617
34.0225,0.0335509
34.0625,0.0320478
34.1025,0.030643
34.1425,0.0293282
34.1825,0.0280959
34.2225,0.0269394
34.2625,0.0258525
34.3025,0.0248299
34.3425,0.0238666
34.3825,0.022958
34.4225,0.0221002
34.4625,0.0212895
34.5025,0.0205224
34.5425,0.0197959
34.5825,0.0191073
34.6225,0.0184538
34.6625,0.0178332
34.7025,0.0172433
34.7425,0.0166822
34.7825,0.0161479
34.8225,0.0156388
34.8625,0.0151534
34.9025,0.0146902
34.9425,0.0142478
34.9825,0.0138251
35.0225,0.0134209
35.0625,0.0130342
35.1025,0.0126638
35.1425,0.0123091
35.1825,0.0119689
35.2225,0.0116427
35.2625,0.0113296
35.3025,0.011029
35.3425,0.0107401
35.3825,0.0104624
35.4225,0.0101954
35.4625,0.00993838
35.5025,0.00969098
35.5425,0.0094527
35.5825,0.00922308
35.6225,0.00900171
35.6625,0.00878821
35.7025,0.00858221
35.7425,0.00838336
35.7825,0.00819133
35.8225,0.00800582
35.8625,0.00782653
35.9025,0.00765319
35.9425,0.00748554
35.9825,0.00732333
36.0225,0.00716633
36.0625,0.00701432
36.1025,0.0068671
36.1425,0.00672445
36.1825,0.0065862
36.2225,0.00645217
36.2625,0.00632218
36.3025,0.00619608
36.3425,0.00607371
36.3825,0.00595492
36.4225,0.00583959
36.4625,0.00572757
36.5025,0.00561874
36.5425,0.00551297
36.5825,0.00541017
36.6225,0.00531021
36.6625,0.005213
36.7025,0.00511843
36.7425,0.0050264
36.7825,0.00493684
36.8225,0.00484964
36.8625,0.00476474
36.9025,0.00468204
36.9425,0.00460147
36.9825,0.00452297
37.0225,0.00444646
37.0625,0.00437187
37.1025,0.00429914
37.1425,0.00422821
37.1825,0.00415902
37.2225,0.00409151
37.2625,0.00402563
37.3025,0.00396133
37.3425,0.00389856
37.3825,0.00383726
37.4225,0.0037774
37.4625,0.00371893
37.5025,0.00366181
37.5425,0.00360599
37.5825,0.00355144
37.6225,0.00349811
37.6625,0.00344598
37.7025,0.003395
37.7425,0.00334514
37.7825,0.00329638
37.8225,0.00324867
37.8625,0.00320199
37.9025,0.00315631
37.9425,0.0031116
37.9825,0.00306783
38.0225,0.00302498
38.0625,0.00298302
38.1025,0.00294193
38.1425,0.00290168
38.1825,0.00286224
38.2225,0.00282361
38.2625,0.00278576
38.3025,0.00274866
38.3425,0.00271229
38.3825,0.00267664
38.4225,0.00264169
38.4625,0.00260742
38.5025,0.00257382
38.5425,0.00254085
38.5825,0.00250852
38.6225,0.0024768
38.6625,0.00244568
38.7025,0.00241514
38.7425,0.00238517
38.7825,0.00235575
38.8225,0.00232687
38.8625,0.00229852
38.9025,0.00227069
38.9425,0.00224336
38.9825,0.00221652
39.0225,0.00219015
39.0625,0.00216426
39.1025,0.00213882
39.1425,0.00211383
39.1825,0.00208927
39.2225,0.00206513
39.2625,0.00204142
39.3025,0.00201811
39.3425,0.00199519
39.3825,0.00197267
39.4225,0.00195052
39.4625,0.00192874
39.5025,0.00190733
39.5425,0.00188627
39.5825,0.00186556
39.6225,0.00184519
39.6625,0.00182515
39.7025,0.00180543
39.7425,0.00178603
39.7825,0.00176694
39.8225,0.00174816
39.8625,0.00172967
39.9025,0.00171148
39.9425,0.00169357
39.9825,0.00167594
40.0225,0.00165859
40.0625,0.0016415
40.1025,0.00162467
40.1425,0.00160811
40.1825,0.00159179
40.2125,0.00157972

File: curve_2_fit.dat
29.4225,0.00229372
29.4625,0.00231942
29.5025,0.00234556
29.5425,0.00237214
29.5825,0.00239918
29.6225,0.00242668
29.6625,0.00245465
29.7025,0.00248311
29.7425,0.00251207
29.7825,0.00254154
29.8225,0.00257153
29.8625,0.00260205
29.9025,0.00263311
29.9425,0.00266474
29.9825,0.00269694
30.0225,0.00272972
30.0625,0.00276311
30.1025,0.00279711
30.1425,0.00283174
30.1825,0.00286702
30.2225,0.00290296
30.2625,0.00293958
30.3025,0.0029769
30.3425,0.00301493
30.3825,0.00305369
30.4225,0.00309321
30.4625,0.00313349
30.5025,0.00317457
30.5425,0.00321646
30.5825,0.00325918
30.6225,0.00330276
30.6625,0.00334721
30.7025,0.00339257
30.7425,0.00343886
30.7825,0.0034861
30.8225,0.00353431
30.8625,0.00358353
30.9025,0.00363379
30.9425,0.00368511
30.9825,0.00373752
31.0225,0.00379106
31.0625,0.00384575
31.1025,0.00390163
31.1425,0.00395874
31.1825,0.00401711
31.2225,0.00407677
31.2625,0.00413778
31.3025,0.00420016
31.3425,0.00426396
31.3825,0.00432922
31.4225,0.00439598
31.4625,0.00446431
31.5025,0.00453423
31.5425,0.00460581
31.5825,0.00467909
31.6225,0.00475413
31.6625,0.00483098
31.7025,0.00490971
31.7425,0.00499038
31.7825,0.00507305
31.8225,0.00515778
31.8625,0.00524465
31.9025,0.00533372
31.9425,0.00542508
31.9825,0.00551881
32.0225,0.00561497
32.0625,0.00571367
32.1025,0.00581498
32.1425,0.00591901
32.1825,0.00602584
32.2225,0.00613559
32.2625,0.00624835
32.3025,0.00636424
32.3425,0.00648338
32.3825,0.00660588
32.4225,0.00673188
32.4625,0.00686151
32.5025,0.0069949
32.5425,0.00713221
32.5825,0.00727359
32.6225,0.00741921
32.6625,0.00756922
32.7025,0.00772382
32.7425,0.00788318
32.7825,0.00804752
32.8225,0.00821702
32.8625,0.00839192
32.9025,0.00857243
32.9425,0.00875882
32.9825,0.00895132
33.0225,0.00915022
33.0625,0.00935579
33.1025,0.00956834
33.1425,0.00978818
33.1825,0.0100157
33.2225,0.0102511
33.2625,0.0104949
33.3025,0.0107475
33.3425,0.0110093
33.3825,0.0112807
33.4225,0.0115622
33.4625,0.0118543
33.5025,0.0121576
33.5425,0.0124726
33.5825,0.0127999
33.6225,0.0131402
33.6625,0.0134942
33.7025,0.0138626
33.7425,0.0142462
33.7825,0.0146458
33.8225,0.0150624
33.8625,0.0154969
33.9025,0.0159503
33.9425,0.0164237
33.9825,0.0169184
34.0225,0.0174356
34.0625,0.0179767
34.1025,0.0185431
34.1425,0.0191366
34.1825,0.0197587
34.2225,0.0204113
34.2625,0.0210966
34.3025,0.0218166
34.3425,0.0225736
34.3825,0.0233704
34.4225,0.0242097
34.4625,0.0250944
34.5025,0.026028
34.5425,0.027014
34.5825,0.0280563
34.6225,0.0291594
34.6625,0.0303279
34.7025,0.031567
34.7425,0.0328825
34.7825,0.0342806
34.8225,0.0357683
34.8625,0.0373533
34.9025,0.0390441
34.9425,0.04085
34.9825,0.0427817
35.0225,0.0448508
35.0625,0.0470702
35.1025,0.0494546
35.1425,0.0520204
35.1825,0.0547857
35.2225,0.0577713
35.2625,0.0610004
35.3025,0.0644994
35.3425,0.068298
35.3825,0.0724301
35.4225,0.0769343
35.4625,0.0818545
35.5025,0.087241
35.5425,0.0931515
35.5825,0.0996523
35.6225,0.106819
35.6625,0.114741
35.7025,0.123518
35.7425,0.133268
35.7825,0.144126
35.8225,0.156248
35.8625,0.169814
35.9025,0.185032
35.9425,0.202135
35.9825,0.221392
36.0225,0.243097
36.0625,0.267574
36.1025,0.29516
36.1425,0.326191
36.1825,0.360959
36.2225,0.399665
36.2625,0.442321
36.3025,0.488638
36.3425,0.537863
36.3825,0.588611
36.4225,0.638725
36.4625,0.685248
36.5025,0.724622
36.5425,0.753162
36.5825,0.767788
36.6225,0.766783
36.6625,0.750268
36.7025,0.720168
36.7425,0.679684
36.7825,0.632519
36.8225,0.582178
36.8625,0.53152
36.9025,0.482601
36.9425,0.436716
36.9825,0.394551
37.0225,0.356349
37.0625,0.322067
37.1025,0.291489
37.1425,0.264315
37.1825,0.240207
37.2225,0.218828
37.2625,0.19986
37.3025,0.183009
37.3425,0.168013
37.3825,0.15464
37.4225,0.142687
37.4625,0.131977
37.5025,0.122357
37.5425,0.113694
37.5825,0.105874
37.6225,0.0987953
37.6625,0.0923732
37.7025,0.0865324
37.7425,0.0812078
37.7825,0.0763429
37.8225,0.071888
37.8625,0.0678001
37.9025,0.0640412
37.9425,0.0605779
37.9825,0.0573809
38.0225,0.0544244
38.0625,0.0516854
38.1025,0.0491435
38.1425,0.0467808
38.1825,0.0445812
38.2225,0.0425302
38.2625,0.040615
38.3025,0.0388242
38.3425,0.0371473
38.3825,0.035575
38.4225,0.0340991
38.4625,0.0327118
38.5025,0.0314063
38.5425,0.0301764
38.5825,0.0290164
38.6225,0.0279213
38.6625,0.0268863
38.7025,0.0259071
38.7425,0.0249799
38.7825,0.0241011
38.8225,0.0232674
38.8625,0.0224758
38.9025,0.0217235
38.9425,0.0210081
38.9825,0.0203271
39.0225,0.0196784
39.0625,0.01906
39.1025,0.0184701
39.1425,0.0179069
39.1825,0.0173689
39.2225,0.0168546
39.2625,0.0163627
39.3025,0.0158919
39.3425,0.0154409
39.3825,0.0150088
39.4225,0.0145944
39.4625,0.0141968
39.5025,0.0138152
39.5425,0.0134487
39.5825,0.0130965
39.6225,0.0127578
39.6625,0.0124321
39.7025,0.0121186
39.7425,0.0118168
39.7825,0.011526
39.8225,0.0112458
39.8625,0.0109757
39.9025,0.0107151
39.9425,0.0104636
39.9825,0.0102209
40.0225,0.00998646
40.0625,0.00975997
40.1025,0.00954107
40.1425,0.00932942
40.1825,0.00912471
40.2125,0.00897555

File: curve_total_fit.dat
29.4225,2.56394
29.4625,2.5643
29.5025,2.56467
29.5425,2.56505
29.5825,2.56545
29.6225,2.56587
29.6625,2.56631
29.7025,2.56676
29.7425,2.56724
29.7825,2.56774
29.8225,2.56826
29.8625,2.56881
29.9025,2.56938
29.9425,2.56999
29.9825,2.57062
30.0225,2.57129
30.0625,2.57199
30.1025,2.57273
30.1425,2.57351
30.1825,2.57433
30.2225,2.57521
30.2625,2.57613
30.3025,2.5771
30.3425,2.57814
30.3825,2.57924
30.4225,2.5804
30.4625,2.58165
30.5025,2.58297
30.5425,2.58439
30.5825,2.5859
30.6225,2.58751
30.6625,2.58924
30.7025,2.5911
30.7425,2.5931
30.7825,2.59525
30.8225,2.59757
30.8625,2.60008
30.9025,2.60279
30.9425,2.60573
30.9825,2.60893
31.0225,2.61242
31.0625,2.61622
31.1025,2.62039
31.1425,2.62496
31.1825,2.62999
31.2225,2.63554
31.2625,2.64169
31.3025,2.64851
31.3425,2.65613
31.3825,2.66465
31.4225,2.67423
31.4625,2.68504
31.5025,2.69731
31.5425,2.71129
31.5825,2.72733
31.6225,2.74582
31.6625,2.7673
31.7025,2.79241
31.7425,2.82199
31.7825,2.8571
31.8225,2.89915
31.8625,2.94994
31.9025,3.01183
31.9425,3.08791
31.9825,3.18215
32.0225,3.29952
32.0625,3.44589
32.1025,3.62721
32.1425,3.84716
32.1825,4.10199
32.2225,4.37181
32.2625,4.61229
32.3025,4.76004
32.3425,4.76391
32.3825,4.62303
32.4225,4.38757
32.4625,4.12113
32.5025,3.86876
32.5425,3.65098
32.5825,3.47188
32.6225,3.32788
32.6625,3.21306
32.7025,3.12154
32.7425,3.04832
32.7825,2.9894
32.8225,2.94167
32.8625,2.90274
32.9025,2.8708
32.9425,2.84443
32.9825,2.82257
33.0225,2.80436
33.0625,2.78915
33.1025,2.77642
33.1425,2.76574
33.1825,2.75678
33.2225,2.74928
33.2625,2.743
33.3025,2.73777
33.3425,2.73343
33.3825,2.72985
33.4225,2.72693
33.4625,2.72458
33.5025,2.72272
33.5425,2.72127
33.5825,2.72019
33.6225,2.71941
33.6625,2.71891
33.7025,2.71863
33.7425,2.71854
33.7825,2.71862
33.8225,2.71882
33.8625,2.71914
33.9025,2.71955
33.9425,2.72002
33.9825,2.72054
34.0225,2.72109
34.0625,2.72167
34.1025,2.72225
34.1425,2.72282
34.1825,2.72338
34.2225,2.72392
34.2625,2.72443
34.3025,2.7249
34.3425,2.72533
34.3825,2.72571
34.4225,2.72604
34.4625,2.72632
34.5025,2.72655
34.5425,2.72672
34.5825,2.72683
34.6225,2.72688
34.6625,2.72688
34.7025,2.72683
34.7425,2.72673
34.7825,2.7266
34.8225,2.72644
34.8625,2.72627
34.9025,2.72609
34.9425,2.72591
34.9825,2.72576
35.0225,2.72565
35.0625,2.72559
35.1025,2.72561
35.1425,2.72572
35.1825,2.72596
35.2225,2.72635
35.2625,2.72691
35.3025,2.72769
35.3425,2.72872
35.3825,2.73003
35.4225,2.73168
35.4625,2.73371
35.5025,2.73619
35.5425,2.73917
35.5825,2.74273
35.6225,2.74695
35.6625,2.75193
35.7025,2.75778
35.7425,2.76461
35.7825,2.77257
35.8225,2.78182
35.8625,2.79255
35.9025,2.80496
35.9425,2.8193
35.9825,2.83584
36.0225,2.85487
36.0625,2.87673
36.1025,2.90176
36.1425,2.93029
36.1825,2.96262
36.2225,2.99895
36.2625,3.0393
36.3025,3.08338
36.3425,3.13044
36.3825,3.17909
36.4225,3.22717
36.4625,3.27174
36.5025,3.30924
36.5425,3.33597
36.5825,3.34886
36.6225,3.34619
36.6625,3.32808
36.7025,3.29645
36.7425,3.25452
36.7825,3.20596
36.8225,3.1543
36.8625,3.10239
36.9025,3.05228
36.9425,3.00527
36.9825,2.96203
37.0225,2.92282
37.0625,2.88758
37.1025,2.8561
37.1425,2.82808
37.1825,2.80317
37.2225,2.78104
37.2625,2.76136
37.3025,2.74385
37.3425,2.72824
37.3825,2.71428
37.4225,2.70179
37.4625,2.69057
37.5025,2.68048
37.5425,2.67137
37.5825,2.66314
37.6225,2.65568
37.6625,2.6489
37.7025,2.64273
37.7425,2.6371
37.7825,2.63195
37.8225,2.62723
37.8625,2.62289
37.9025,2.61891
37.9425,2.61523
37.9825,2.61184
38.0225,2.6087
38.0625,2.60579
38.1025,2.6031
38.1425,2.60059
38.1825,2.59826
38.2225,2.59608
38.2625,2.59405
38.3025,2.59215
38.3425,2.59038
38.3825,2.58871
38.4225,2.58715
38.4625,2.58568
38.5025,2.5843
38.5425,2.583
38.5825,2.58178
38.6225,2.58062
38.6625,2.57953
38.7025,2.5785
38.7425,2.57752
38.7825,2.57659
38.8225,2.57571
38.8625,2.57488
38.9025,2.57409
38.9425,2.57333
38.9825,2.57261
39.0225,2.57193
39.0625,2.57128
39.1025,2.57066
39.1425,2.57006
39.1825,2.56949
39.2225,2.56895
39.2625,2.56843
39.3025,2.56793
39.3425,2.56746
39.3825,2.567
39.4225,2.56656
39.4625,2.56614
39.5025,2.56573
39.5425,2.56534
39.5825,2.56497
39.6225,2.56461
39.6625,2.56426
39.7025,2.56393
39.7425,2.56361
39.7825,2.5633
39.8225,2.563
39.8625,2.56271
39.9025,2.56243
39.9425,2.56216
39.9825,2.5619
40.0225,2.56165
40.0625,2.5614
40.1025,2.56117
40.1425,2.56094
40.1825,2.56072
40.2125,2.56056

File: xrd.csv
29.0743, 2.56134
29.4225, 2.56001
29.8134, 2.56409
30.1832, 2.58068
30.5744, 2.59251
30.9433, 2.61838
31.3069, 2.66436
31.6274, 2.74197
31.8391, 2.7431
31.8569, 2.83218
31.9719, 2.91642
32.0025, 3.74874
32.0274, 3.95369
32.0338, 3.14348
32.0407, 3.00198
32.0519, 3.29912
32.054, 3.66157
32.067, 3.08968
32.095, 3.21192
32.1006, 4.0933
32.1064, 4.56466
32.1107, 3.37592
32.1114, 4.18838
32.1272, 3.46637
32.128, 4.31837
32.1495, 3.56734
32.2722, 4.71663
32.4848, 4.51725
32.524, 3.61129
32.5745, 3.54632
32.5746, 4.3224
32.5801, 3.47151
32.6043, 3.26574
32.6137, 3.40434
32.6159, 3.33677
32.6331, 3.19228
32.7127, 3.12262
32.7732, 3.03754
32.833, 2.95395
32.9481, 2.88796
33.1657, 2.8334
33.4968, 2.77638
33.5025, 2.82372
33.8349, 2.75961
34.0986, 2.78653
34.3375, 2.74511
34.4671, 2.80643
34.7081, 2.75286
34.9148, 2.80512
35.1236, 2.74859
35.2771, 2.81491
35.513, 2.78189
35.6649, 2.83795
35.8855, 2.82066
35.9799, 2.89701
36.2039, 2.99937
36.2111, 2.91595
36.2818, 3.07923
36.3746, 3.1805
36.5004, 3.32541
36.5692, 3.23371
36.6999, 3.08055
36.7511, 3.34301
36.8051, 3.27632
36.8421, 3.20378
36.863, 3.09116
36.8787, 3.14031
36.9422, 3.00173
37.0116, 2.89909
37.0909, 2.82192
37.2638, 2.75172
37.4882, 2.68524
37.5226, 2.75647
37.8263, 2.63526
38.1784, 2.61448
38.3828, 2.57049
38.731, 2.57742
39.0967, 2.55665
39.4824, 2.54989
39.8738, 2.55055
40.22, 2.5464