Folder: gan/li_2014/400_xrd

Note: li_2014/400_xrd/summary.md
## XRD

#### Curve 1 (10-10)
**Type**: Loretenzian\
**amplitude:** 1.2\
**center** 32.3\
**σ** 0.3


#### Curve 2 (10-11)
**Type**:Skewed Gaussian\
**amplitude** 0.2\
**center** 36.5\
**σ** 0.6\
**σ2** 0.7


## S<sup>2</sup>
**(10-10) Curve Integrated Area:** 0.634956\
**(10-11) Curve Integrated Area:** 0.367876\
**S<sup>2</sup>:** 0.6110




















## Reference
XRD analyzed from:
DOI:10.1007/s10854-014-1742-4

Note: README.md
## Data Repository for Disorder and Its Impact on Mobility of Undoped GaN
[![DOI](https://zenodo.org/badge/664896126.svg)](https://zenodo.org/badge/latestdoi/664896126)

File: curve_1_fit.dat
30.3582,0.0095421
30.3882,0.00984144
30.4182,0.010155
30.4482,0.0104838
30.4782,0.0108288
30.5082,0.011191
30.5382,0.0115717
30.5682,0.011972
30.5982,0.0123934
30.6282,0.0128374
30.6582,0.0133056
30.6882,0.0137997
30.7182,0.0143218
30.7482,0.014874
30.7782,0.0154586
30.8082,0.0160781
30.8382,0.0167355
30.8682,0.0174339
30.8982,0.0181766
30.9282,0.0189676
30.9582,0.019811
30.9882,0.0207117
31.0182,0.0216748
31.0482,0.0227062
31.0782,0.0238125
31.1082,0.0250011
31.1382,0.0262802
31.1682,0.0276593
31.1982,0.0291489
31.2282,0.030761
31.2582,0.0325094
31.2882,0.0344096
31.3182,0.0364796
31.3482,0.0387399
31.3782,0.0412144
31.4082,0.0439306
31.4382,0.0469205
31.4682,0.0502217
31.4982,0.0538781
31.5282,0.0579416
31.5582,0.0624738
31.5882,0.0675479
31.6182,0.0732519
31.6482,0.0796916
31.6782,0.0869955
31.7082,0.0953202
31.7382,0.104858
31.7682,0.115847
31.7982,0.128583
31.8282,0.143438
31.8582,0.160877
31.8882,0.181495
31.9182,0.206045
31.9482,0.235491
31.9782,0.27106
32.0082,0.314305
32.0382,0.367155
32.0682,0.43191
32.0982,0.511096
32.1282,0.606983
32.1582,0.720444
32.1882,0.848751
32.2182,0.982318
32.2482,1.10202
32.2782,1.18136
32.3082,1.19736
32.3382,1.14484
32.3682,1.04012
32.3982,0.90992
32.4282,0.777485
32.4582,0.656587
32.4882,0.552643
32.5182,0.466076
32.5482,0.395056
32.5782,0.337082
32.6082,0.28972
32.6382,0.250865
32.6682,0.218797
32.6982,0.192149
32.7282,0.169843
32.7582,0.151037
32.7882,0.135068
32.8182,0.121418
32.8482,0.109673
32.8782,0.0995057
32.9082,0.0906541
32.9382,0.0829062
32.9682,0.0760899
32.9982,0.0700648
33.0282,0.0647154
33.0582,0.059946
33.0882,0.0556771
33.1182,0.051842
33.1482,0.0483847
33.1782,0.0452579
33.2082,0.0424211
33.2382,0.0398401
33.2682,0.0374853
33.2982,0.0353312
33.3282,0.033356
33.3582,0.0315404
33.3882,0.029868
33.4182,0.0283241
33.4482,0.026896
33.4782,0.0255726
33.5082,0.0243438
33.5382,0.0232009
33.5682,0.0221362
33.5982,0.0211427
33.6282,0.0202143
33.6582,0.0193454
33.6882,0.018531
33.7182,0.0177668
33.7482,0.0170487
33.7782,0.016373
33.8082,0.0157366
33.8382,0.0151364
33.8682,0.0145697
33.8982,0.0140342
33.9282,0.0135276
33.9582,0.0130478
33.9882,0.012593
34.0182,0.0121615
34.0482,0.0117517
34.0782,0.0113623
34.1082,0.0109918
34.1382,0.0106391
34.1682,0.010303
34.1982,0.00998262
34.2282,0.00967688
34.2582,0.00938494
34.2882,0.00910599
34.3182,0.00883926
34.3482,0.00858405
34.3782,0.00833971
34.4082,0.00810564
34.4382,0.00788126
34.4682,0.00766605
34.4982,0.00745953
34.5282,0.00726121
34.5582,0.00707069
34.5882,0.00688756
34.6182,0.00671143
34.6482,0.00654197
34.6782,0.00637883
34.7082,0.00622171
34.7382,0.00607031
34.7682,0.00592437
34.7982,0.00578361
34.8282,0.00564781
34.8582,0.00551673
34.8882,0.00539015
34.9182,0.00526787
34.9482,0.0051497
34.9782,0.00503545
35.0082,0.00492497
35.0382,0.00481807
35.0682,0.00471461
35.0982,0.00461445
35.1282,0.00451744
35.1582,0.00442345
35.1882,0.00433236
35.2182,0.00424406
35.2482,0.00415842
35.2782,0.00407535
35.3082,0.00399473
35.3382,0.00391649
35.3682,0.00384052
35.3982,0.00376673
35.4282,0.00369505
35.4582,0.0036254
35.4882,0.00355769
35.5182,0.00349186
35.5482,0.00342784
35.5782,0.00336556
35.6082,0.00330497
35.6382,0.00324599
35.6682,0.00318858
35.6982,0.00313267
35.7282,0.00307822
35.7582,0.00302518
35.7882,0.0029735
35.8182,0.00292313
35.8482,0.00287402
35.8782,0.00282614
35.9082,0.00277945
35.9382,0.00273391
35.9682,0.00268947
35.9982,0.00264611
36.0282,0.00260379
36.0582,0.00256247
36.0882,0.00252213
36.1182,0.00248273
36.1482,0.00244425
36.1782,0.00240666
36.2082,0.00236993
36.2382,0.00233403
36.2682,0.00229894
36.2982,0.00226463
36.3282,0.00223109
36.3582,0.00219828
36.3882,0.00216619
36.4182,0.00213481
36.4482,0.00210409
36.4782,0.00207404
36.5082,0.00204462
36.5382,0.00201583
36.5682,0.00198764
36.5982,0.00196003
36.6282,0.001933
36.6582,0.00190652
36.6882,0.00188058
36.7182,0.00185517
36.7482,0.00183027
36.7782,0.00180586
36.8082,0.00178194
36.8382,0.0017585
36.8682,0.00173551
36.8982,0.00171297
36.9282,0.00169086
36.9582,0.00166919
36.9882,0.00164792
37.0182,0.00162706
37.0482,0.00160659
37.0782,0.00158651
37.1082,0.0015668
37.1382,0.00154745
37.1682,0.00152846
37.1982,0.00150982
37.2282,0.00149152
37.2582,0.00147354
37.2882,0.00145589
37.3182,0.00143856
37.3482,0.00142153
37.3782,0.00140481
37.4082,0.00138837
37.4382,0.00137223
37.4682,0.00135636
37.4982,0.00134077
37.5282,0.00132544
37.5582,0.00131038
37.5882,0.00129557
37.6182,0.00128101
37.6482,0.00126669
37.6782,0.00125261
37.7082,0.00123877
37.7382,0.00122515
37.7682,0.00121176
37.7982,0.00119859
37.8282,0.00118563
37.8582,0.00117287
37.8882,0.00116033
37.9182,0.00114798
37.9482,0.00113583
37.9782,0.00112387
38.0082,0.0011121
38.0382,0.00110051
38.0682,0.0010891
38.0982,0.00107787
38.1282,0.00106681
38.1582,0.00105593
38.1882,0.0010452
38.2182,0.00103464
38.2482,0.00102424
38.2782,0.00101399
38.3082,0.0010039
38.3382,0.00099396
38.3682,0.000984164
38.3982,0.000974513
38.4282,0.000965002
38.4382,0.000961863

File: curve_2_fit.dat
30.3582,1.07966e-23
30.3882,1.77757e-23
30.4182,2.91951e-23
30.4482,4.78342e-23
30.4782,7.8183e-23
30.5082,1.27477e-22
30.5382,2.07345e-22
30.5682,3.36436e-22
30.5982,5.44572e-22
30.6282,8.79334e-22
30.6582,1.41643e-21
30.6882,2.27606e-21
30.7182,3.64852e-21
30.7482,5.83438e-21
30.7782,9.30716e-21
30.8082,1.4811e-20
30.8382,2.35124e-20
30.8682,3.72352e-20
30.8982,5.88242e-20
30.9282,9.27049e-20
30.9582,1.45745e-19
30.9882,2.28576e-19
31.0182,3.57613e-19
31.0482,5.58135e-19
31.0782,8.68982e-19
31.1082,1.34967e-18
31.1382,2.09116e-18
31.1682,3.23217e-18
31.1982,4.98362e-18
31.2282,7.6655e-18
31.2582,1.1762e-17
31.2882,1.80039e-17
31.3182,2.74914e-17
31.3482,4.18767e-17
31.3782,6.36345e-17
31.4082,9.64623e-17
31.4382,1.45871e-16
31.4682,2.20051e-16
31.4982,3.31148e-16
31.5282,4.97126e-16
31.5582,7.44486e-16
31.5882,1.11222e-15
31.6182,1.65756e-15
31.6482,2.4643e-15
31.6782,3.6548e-15
31.7082,5.40726e-15
31.7382,7.98061e-15
31.7682,1.175e-14
31.7982,1.72579e-14
31.8282,2.52861e-14
31.8582,3.6959e-14
31.8882,5.38894e-14
31.9182,7.83847e-14
31.9482,1.13738e-13
31.9782,1.64635e-13
32.0082,2.37731e-13
32.0382,3.42446e-13
32.0682,4.92091e-13
32.0982,7.05412e-13
32.1282,1.00875e-12
32.1582,1.43904e-12
32.1882,2.04788e-12
32.2182,2.90724e-12
32.2482,4.11721e-12
32.2782,5.81661e-12
32.3082,8.1975e-12
32.3382,1.15249e-11
32.3682,1.61637e-11
32.3982,2.26144e-11
32.4282,3.15629e-11
32.4582,4.39454e-11
32.4882,6.10371e-11
32.5182,8.45707e-11
32.5482,1.16894e-10
32.5782,1.61178e-10
32.6082,2.21701e-10
32.6382,3.04209e-10
32.6682,4.16411e-10
32.6982,5.68614e-10
32.7282,7.74565e-10
32.7582,1.05255e-09
32.7882,1.42683e-09
32.8182,1.92951e-09
32.8482,2.60296e-09
32.8782,3.50293e-09
32.9082,4.70263e-09
32.9382,6.29789e-09
32.9682,8.41384e-09
32.9982,1.12134e-08
33.0282,1.49083e-08
33.0582,1.97725e-08
33.0882,2.61601e-08
33.1182,3.45273e-08
33.1482,4.54602e-08
33.1782,5.97097e-08
33.2082,7.82353e-08
33.2382,1.0226e-07
33.2682,1.33338e-07
33.2982,1.73439e-07
33.3282,2.25053e-07
33.3582,2.91318e-07
33.3882,3.76179e-07
33.4182,4.84582e-07
33.4482,6.22708e-07
33.4782,7.98265e-07
33.5082,1.02083e-06
33.5382,1.30228e-06
33.5682,1.65731e-06
33.5982,2.10399e-06
33.6282,2.66459e-06
33.6582,3.36638e-06
33.6882,4.24267e-06
33.7182,5.33409e-06
33.7482,6.69001e-06
33.7782,8.37023e-06
33.8082,1.0447e-05
33.8382,1.30075e-05
33.8682,1.61562e-05
33.8982,2.00185e-05
33.9282,2.47438e-05
33.9582,3.05103e-05
33.9882,3.75294e-05
34.0182,4.60513e-05
34.0482,5.63712e-05
34.0782,6.88362e-05
34.1082,8.38536e-05
34.1382,0.000101899
34.1682,0.000123528
34.1982,0.000149384
34.2282,0.000180214
34.2582,0.00021688
34.2882,0.000260371
34.3182,0.000311826
34.3482,0.000372543
34.3782,0.000444002
34.4082,0.000527884
34.4382,0.00062609
34.4682,0.000740765
34.4982,0.000874316
34.5282,0.00102944
34.5582,0.00120915
34.5882,0.00141678
34.6182,0.00165604
34.6482,0.00193101
34.6782,0.00224616
34.7082,0.00260642
34.7382,0.00301711
34.7682,0.00348404
34.7982,0.00401347
34.8282,0.00461214
34.8582,0.00528725
34.8882,0.00604646
34.9182,0.00689792
34.9482,0.00785018
34.9782,0.00891223
35.0082,0.0100934
35.0382,0.0114034
35.0682,0.0128521
35.0982,0.0144498
35.1282,0.0162066
35.1582,0.0181329
35.1882,0.020239
35.2182,0.0225348
35.2482,0.0250302
35.2782,0.0277345
35.3082,0.0306563
35.3382,0.0338038
35.3682,0.0371839
35.3982,0.0408028
35.4282,0.0446653
35.4582,0.0487747
35.4882,0.053133
35.5182,0.0577402
35.5482,0.0625947
35.5782,0.0676927
35.6082,0.0730283
35.6382,0.0785932
35.6682,0.084377
35.6982,0.0903666
35.7282,0.0965465
35.7582,0.102899
35.7882,0.109403
35.8182,0.116036
35.8482,0.122772
35.8782,0.129584
35.9082,0.136443
35.9382,0.143316
35.9682,0.150169
35.9982,0.156969
36.0282,0.163678
36.0582,0.17026
36.0882,0.176677
36.1182,0.182891
36.1482,0.188864
36.1782,0.194559
36.2082,0.19994
36.2382,0.20497
36.2682,0.209617
36.2982,0.21385
36.3282,0.217638
36.3582,0.220956
36.3882,0.223781
36.4182,0.226091
36.4482,0.227871
36.4782,0.229108
36.5082,0.229793
36.5382,0.229923
36.5682,0.229565
36.5982,0.228746
36.6282,0.22747
36.6582,0.225746
36.6882,0.223582
36.7182,0.220994
36.7482,0.217995
36.7782,0.214603
36.8082,0.210838
36.8382,0.206721
36.8682,0.202277
36.8982,0.197529
36.9282,0.192504
36.9582,0.187228
36.9882,0.18173
37.0182,0.176038
37.0482,0.17018
37.0782,0.164186
37.1082,0.158083
37.1382,0.151901
37.1682,0.145666
37.1982,0.139405
37.2282,0.133145
37.2582,0.126909
37.2882,0.120722
37.3182,0.114605
37.3482,0.108578
37.3782,0.102661
37.4082,0.0968713
37.4382,0.0912234
37.4682,0.0857317
37.4982,0.0804082
37.5282,0.0752632
37.5582,0.0703055
37.5882,0.0655419
37.6182,0.060978
37.6482,0.0566174
37.6782,0.0524628
37.7082,0.048515
37.7382,0.0447739
37.7682,0.041238
37.7982,0.0379047
37.8282,0.0347707
37.8582,0.0318314
37.8882,0.029082
37.9182,0.0265164
37.9482,0.0241284
37.9782,0.0219113
38.0082,0.0198577
38.0382,0.0179604
38.0682,0.0162116
38.0982,0.0146035
38.1282,0.0131285
38.1582,0.0117787
38.1882,0.0105463
38.2182,0.00942385
38.2482,0.00840388
38.2782,0.00747921
38.3082,0.00664286
38.3382,0.00588814
38.3682,0.00520864
38.3982,0.00459828
38.4282,0.00405125
38.4382,0.00388203

File: curve_total_fit.dat
30.3582,4.75988
30.3882,4.76019
30.4182,4.7605
30.4482,4.76083
30.4782,4.76118
30.5082,4.76155
30.5382,4.76193
30.5682,4.76234
30.5982,4.76277
30.6282,4.76322
30.6582,4.76369
30.6882,4.7642
30.7182,4.76473
30.7482,4.76529
30.7782,4.76589
30.8082,4.76652
30.8382,4.76719
30.8682,4.7679
30.8982,4.76866
30.9282,4.76947
30.9582,4.77034
30.9882,4.77126
31.0182,4.77225
31.0482,4.77331
31.0782,4.77445
31.1082,4.77567
31.1382,4.77699
31.1682,4.77841
31.1982,4.77995
31.2282,4.78161
31.2582,4.78341
31.2882,4.78537
31.3182,4.78751
31.3482,4.78984
31.3782,4.79239
31.4082,4.7952
31.4382,4.79828
31.4682,4.80168
31.4982,4.80545
31.5282,4.80963
31.5582,4.81429
31.5882,4.81951
31.6182,4.82536
31.6482,4.83197
31.6782,4.83945
31.7082,4.84796
31.7382,4.85771
31.7682,4.86892
31.7982,4.88189
31.8282,4.897
31.8582,4.91472
31.8882,4.93563
31.9182,4.96049
31.9482,4.99028
31.9782,5.02621
32.0082,5.06984
32.0382,5.1231
32.0682,5.18829
32.0982,5.26794
32.1282,5.36432
32.1582,5.47831
32.1882,5.60717
32.2182,5.74133
32.2482,5.86165
32.2782,5.94165
32.3082,5.95835
32.3382,5.90656
32.3682,5.80262
32.3982,5.67323
32.4282,5.54165
32.4582,5.42165
32.4882,5.31865
32.5182,5.23308
32.5482,5.16309
32.5782,5.1062
32.6082,5.05997
32.6382,5.02229
32.6682,4.99145
32.6982,4.96608
32.7282,4.9451
32.7582,4.92767
32.7882,4.91313
32.8182,4.90096
32.8482,4.89074
32.8782,4.88215
32.9082,4.87493
32.9382,4.86886
32.9682,4.86377
32.9982,4.85952
33.0282,4.85599
33.0582,4.85309
33.0882,4.85073
33.1182,4.84885
33.1482,4.84739
33.1782,4.8463
33.2082,4.84553
33.2382,4.84505
33.2682,4.84483
33.2982,4.84484
33.3282,4.84505
33.3582,4.84545
33.3882,4.84601
33.4182,4.84671
33.4482,4.84754
33.4782,4.84849
33.5082,4.84953
33.5382,4.85066
33.5682,4.85186
33.5982,4.85313
33.6282,4.85445
33.6582,4.85581
33.6882,4.8572
33.7182,4.85862
33.7482,4.86006
33.7782,4.86149
33.8082,4.86293
33.8382,4.86436
33.8682,4.86578
33.8982,4.86717
33.9282,4.86853
33.9582,4.86985
33.9882,4.87113
34.0182,4.87237
34.0482,4.87355
34.0782,4.87467
34.1082,4.87573
34.1382,4.87672
34.1682,4.87764
34.1982,4.87849
34.2282,4.87925
34.2582,4.87994
34.2882,4.88054
34.3182,4.88105
34.3482,4.88148
34.3782,4.88182
34.4082,4.88207
34.4382,4.88224
34.4682,4.88231
34.4982,4.8823
34.5282,4.88223
34.5582,4.88214
34.5882,4.88202
34.6182,4.88187
34.6482,4.88171
34.6782,4.88154
34.7082,4.88136
34.7382,4.88118
34.7682,4.881
34.7982,4.88084
34.8282,4.88069
34.8582,4.88057
34.8882,4.88048
34.9182,4.88044
34.9482,4.88045
34.9782,4.88052
35.0082,4.88067
35.0382,4.8809
35.0682,4.88122
35.0982,4.88166
35.1282,4.88221
35.1582,4.88289
35.1882,4.88371
35.2182,4.88469
35.2482,4.88583
35.2782,4.88714
35.3082,4.88864
35.3382,4.89034
35.3682,4.89224
35.3982,4.89435
35.4282,4.89669
35.4582,4.89924
35.4882,4.90202
35.5182,4.90503
35.5482,4.90827
35.5782,4.91174
35.6082,4.91543
35.6382,4.91934
35.6682,4.92345
35.6982,4.92776
35.7282,4.93225
35.7582,4.93691
35.7882,4.94172
35.8182,4.94665
35.8482,4.95169
35.8782,4.9568
35.9082,4.96196
35.9382,4.96714
35.9682,4.9723
35.9982,4.97742
36.0282,4.98245
36.0582,4.98737
36.0882,4.99213
36.1182,4.9967
36.1482,5.00104
36.1782,5.00512
36.2082,5.0089
36.2382,5.01235
36.2682,5.01543
36.2982,5.01811
36.3282,5.02037
36.3582,5.02218
36.3882,5.02352
36.4182,5.02437
36.4482,5.0247
36.4782,5.02452
36.5082,5.02381
36.5382,5.02257
36.5682,5.02087
36.5982,5.01873
36.6282,5.01616
36.6582,5.01316
36.6882,5.00976
36.7182,5.00595
36.7482,5.00176
36.7782,4.99721
36.8082,4.99231
36.8382,4.98709
36.8682,4.98156
36.8982,4.97576
36.9282,4.96971
36.9582,4.96344
36.9882,4.95697
37.0182,4.95033
37.0482,4.94355
37.0782,4.93667
37.1082,4.9297
37.1382,4.92268
37.1682,4.91563
37.1982,4.90858
37.2282,4.90156
37.2582,4.89458
37.2882,4.88768
37.3182,4.88087
37.3482,4.87418
37.3782,4.86762
37.4082,4.8612
37.4382,4.85496
37.4682,4.84889
37.4982,4.84301
37.5282,4.83733
37.5582,4.83185
37.5882,4.82659
37.6182,4.82155
37.6482,4.81673
37.6782,4.81214
37.7082,4.80777
37.7382,4.80362
37.7682,4.7997
37.7982,4.79599
37.8282,4.7925
37.8582,4.78922
37.8882,4.78615
37.9182,4.78327
37.9482,4.78059
37.9782,4.77808
38.0082,4.77576
38.0382,4.7736
38.0682,4.77161
38.0982,4.76976
38.1282,4.76806
38.1582,4.7665
38.1882,4.76506
38.2182,4.76375
38.2482,4.76254
38.2782,4.76144
38.3082,4.76044
38.3382,4.75953
38.3682,4.7587
38.3982,4.75794
38.4282,4.75726
38.4382,4.75705

File: xrd.csv
29.8769, 4.78519
30.3582, 4.78387
30.7921, 4.79198
31.2006, 4.8141
31.6344, 4.85287
31.9272, 4.95084
31.9694, 5.04522
32.0362, 5.13764
32.0673, 5.23093
32.1347, 5.33244
32.1782, 5.46775
32.2191, 5.61333
32.2297, 5.72988
32.2562, 6.01606
32.2908, 5.90915
32.2934, 5.82929
32.4787, 5.34064
32.4953, 5.4715
32.5172, 5.20724
32.5758, 5.08305
32.7267, 4.98253
32.9102, 4.8898
33.3189, 4.88889
33.7517, 4.86182
34.1934, 4.85626
34.6066, 4.86801
35.0998, 4.89091
35.5892, 4.92409
36.031, 4.95967
36.3835, 5.04323
36.784, 5.00955
37.0354, 4.92256
37.361, 4.86018
37.6983, 4.82285
38.0527, 4.78626
38.4453, 4.77277