Folder: gan/mohanta_2013/25nm/raman

Note: mohanta_2013/25nm/raman/summary.md
## Raman

#### Curve 1 (Disordered Peak)
**Type**: Skewed Gaussian\
**amplitude:** 0.3\
**center** 555.7\
**σ** 17.0
**σ2** 4.6


#### Curve 2 (Ordered Peak)
**Type**:Skewed Gaussian\
**amplitude** 0.2\
**center** 565.8\
**σ** 4.2\
**σ2** 7.7


## S<sup>2</sup>
**Disordered Curve Integrated Area:** 8.794470\
**Ordered Curve Integrated Area:** 3.651903\
**S<sup>2</sup>:** 0.2934


















## Reference
Data analyzed from DOI:10.1016/j.tsf.2013.03.112

Note: README.md
## Data Repository for Disorder and Its Impact on Mobility of Undoped GaN
[![DOI](https://zenodo.org/badge/664896126.svg)](https://zenodo.org/badge/latestdoi/664896126)

File: curve_1_fit.dat
507.442,0.00566811
507.742,0.00595961
508.042,0.00626414
508.342,0.00658218
508.642,0.0069142
508.942,0.0072607
509.242,0.00762218
509.542,0.00799916
509.842,0.00839216
510.142,0.00880172
510.442,0.00922838
510.742,0.0096727
511.042,0.0101352
511.342,0.0106166
511.642,0.0111173
511.942,0.011638
512.242,0.0121793
512.542,0.0127418
512.842,0.0133261
513.142,0.0139328
513.442,0.0145626
513.742,0.0152162
514.042,0.015894
514.342,0.0165969
514.642,0.0173255
514.942,0.0180804
515.242,0.0188623
515.542,0.0196718
515.842,0.0205097
516.142,0.0213766
516.442,0.0222732
516.742,0.0232001
517.042,0.0241581
517.342,0.0251477
517.642,0.0261697
517.942,0.0272248
518.242,0.0283135
518.542,0.0294366
518.842,0.0305946
519.142,0.0317883
519.442,0.0330182
519.742,0.034285
520.042,0.0355892
520.342,0.0369316
520.642,0.0383126
520.942,0.0397328
521.242,0.0411928
521.542,0.042693
521.842,0.0442341
522.142,0.0458165
522.442,0.0474407
522.742,0.0491072
523.042,0.0508162
523.342,0.0525683
523.642,0.0543639
523.942,0.0562032
524.242,0.0580866
524.542,0.0600143
524.842,0.0619866
525.142,0.0640038
525.442,0.0660659
525.742,0.0681732
526.042,0.0703257
526.342,0.0725235
526.642,0.0747666
526.942,0.077055
527.242,0.0793887
527.542,0.0817674
527.842,0.0841911
528.142,0.0866596
528.442,0.0891726
528.742,0.0917298
529.042,0.0943308
529.342,0.0969753
529.642,0.0996627
529.942,0.102393
530.242,0.105164
530.542,0.107978
530.842,0.110831
531.142,0.113725
531.442,0.116658
531.742,0.119629
532.042,0.122637
532.342,0.125681
532.642,0.128761
532.942,0.131876
533.242,0.135023
533.542,0.138202
533.842,0.141412
534.142,0.144651
534.442,0.147919
534.742,0.151212
535.042,0.154531
535.342,0.157873
535.642,0.161238
535.942,0.164622
536.242,0.168025
536.542,0.171445
536.842,0.174879
537.142,0.178327
537.442,0.181786
537.742,0.185254
538.042,0.188729
538.342,0.192209
538.642,0.195693
538.942,0.199177
539.242,0.20266
539.542,0.206139
539.842,0.209613
540.142,0.213078
540.442,0.216534
540.742,0.219976
541.042,0.223403
541.342,0.226813
541.642,0.230203
541.942,0.233571
542.242,0.236913
542.542,0.240229
542.842,0.243515
543.142,0.246768
543.442,0.249987
543.742,0.253169
544.042,0.256311
544.342,0.259412
544.642,0.262467
544.942,0.265476
545.242,0.268435
545.542,0.271342
545.842,0.274196
546.142,0.276992
546.442,0.27973
546.742,0.282406
547.042,0.285019
547.342,0.287567
547.642,0.290046
547.942,0.292455
548.242,0.294793
548.542,0.297056
548.842,0.299243
549.142,0.301352
549.442,0.30338
549.742,0.305327
550.042,0.307191
550.342,0.308969
550.642,0.310661
550.942,0.312264
551.242,0.313778
551.542,0.3152
551.842,0.31653
552.142,0.317766
552.442,0.318907
552.742,0.319952
553.042,0.320901
553.342,0.321751
553.642,0.322503
553.942,0.323156
554.242,0.323709
554.542,0.324162
554.842,0.324514
555.142,0.324764
555.442,0.324914
555.742,0.324961
556.042,0.324238
556.342,0.322158
556.642,0.318745
556.942,0.314043
557.242,0.308111
557.542,0.30102
557.842,0.292857
558.142,0.283717
558.442,0.273708
558.742,0.262943
559.042,0.251539
559.342,0.239618
559.642,0.227304
559.942,0.214716
560.242,0.201973
560.542,0.189187
560.842,0.176467
561.142,0.16391
561.442,0.151607
561.742,0.139638
562.042,0.128073
562.342,0.116973
562.642,0.106385
562.942,0.0963497
563.242,0.086894
563.542,0.0780371
563.842,0.0697883
564.142,0.0621493
564.442,0.0551138
564.742,0.0486694
565.042,0.0427979
565.342,0.0374766
565.642,0.032679
565.942,0.0283758
566.242,0.0245358
566.542,0.0211262
566.842,0.018114
567.142,0.015466
567.442,0.0131497
567.742,0.0111332
568.042,0.00938639
568.342,0.00788039
568.642,0.00658821
568.942,0.00548477
569.242,0.00454696
569.542,0.00375365
569.842,0.00308573
570.142,0.002526
570.442,0.00205912
570.742,0.00167147
571.042,0.0013511
571.342,0.00108755
571.642,0.000871723
571.942,0.000695794
572.242,0.000553037
572.542,0.000437722
572.842,0.000344996
573.142,0.00027077
573.442,0.000211621
573.742,0.000164698
574.042,0.00012764
574.342,9.85052e-05
574.642,7.5701e-05
574.942,5.79315e-05
575.242,4.41468e-05
575.542,3.35008e-05
575.842,2.53152e-05
576.142,1.90493e-05
576.442,1.42741e-05
576.742,1.0651e-05
577.042,7.91408e-06
577.342,5.85576e-06
577.642,4.31456e-06
577.942,3.16564e-06
578.242,2.3129e-06
578.542,1.68277e-06
578.842,1.21916e-06
579.142,8.79571e-07
579.442,6.31904e-07
579.742,4.52067e-07
580.042,3.22051e-07
580.342,2.28464e-07
580.642,1.61393e-07
580.942,1.13532e-07
581.242,7.95291e-08
581.542,5.54759e-08
581.842,3.85348e-08
582.142,2.66547e-08
582.442,1.83597e-08
582.742,1.2593e-08
583.042,8.60125e-09
583.342,5.85014e-09
583.642,3.96225e-09
583.942,2.67233e-09
584.242,1.79476e-09
584.542,1.20032e-09
584.842,7.99387e-10
585.142,5.30138e-10
585.442,3.50099e-10
585.742,2.30232e-10
586.042,1.50768e-10
586.342,9.83164e-11
586.642,6.3843e-11
586.942,4.1283e-11
587.242,2.65828e-11
587.542,1.70452e-11
587.842,1.08836e-11
588.142,6.92015e-12
588.442,4.38157e-12
588.742,2.76258e-12
589.042,1.73449e-12
589.342,1.08442e-12
589.642,6.75143e-13
589.942,4.18568e-13
590.242,2.58408e-13
590.542,1.58861e-13
590.842,9.72525e-14
591.142,5.92863e-14
591.442,3.59898e-14
591.742,2.17558e-14
592.042,1.30961e-14
592.342,7.85021e-15
592.642,4.68588e-15
592.942,2.7853e-15
593.242,1.64863e-15
593.542,9.71731e-16
593.842,5.70348e-16
594.142,3.33354e-16
594.442,1.94018e-16
594.742,1.12447e-16
595.042,6.48974e-17
595.342,3.72973e-17
595.642,2.13451e-17
595.742,1.77051e-17

File: curve_2_fit.dat
507.442,6.19835e-44
507.742,1.69393e-43
508.042,4.60536e-43
508.342,1.24561e-42
508.642,3.35162e-42
508.942,8.97174e-42
509.242,2.38918e-41
509.542,6.32955e-41
509.842,1.6682e-40
510.142,4.37394e-40
510.442,1.1409e-39
510.742,2.96058e-39
511.042,7.64283e-39
511.342,1.96283e-38
511.642,5.01491e-38
511.942,1.27466e-37
512.242,3.22311e-37
512.542,8.10788e-37
512.842,2.02904e-36
513.142,5.05155e-36
513.442,1.25115e-35
513.742,3.0828e-35
514.042,7.55671e-35
514.342,1.84277e-34
514.642,4.47053e-34
514.942,1.07894e-33
515.242,2.59053e-33
515.542,6.18771e-33
515.842,1.47035e-32
516.142,3.47588e-32
516.442,8.17445e-32
516.742,1.91251e-31
517.042,4.45142e-31
517.342,1.03073e-30
517.642,2.37434e-30
517.942,5.44115e-30
518.242,1.24048e-29
518.542,2.81345e-29
518.842,6.34805e-29
519.142,1.42492e-28
519.442,3.18196e-28
519.742,7.06883e-28
520.042,1.56225e-27
520.342,3.43484e-27
520.642,7.51299e-27
520.942,1.63482e-26
521.242,3.53898e-26
521.542,7.62143e-26
521.842,1.63285e-25
522.142,3.48022e-25
522.442,7.37934e-25
522.742,1.55661e-24
523.042,3.26658e-24
523.342,6.81956e-24
523.642,1.41635e-23
523.942,2.92642e-23
524.242,6.01525e-23
524.542,1.23004e-22
524.842,2.5023e-22
525.142,5.06417e-22
525.442,1.0196e-21
525.742,2.04221e-21
526.042,4.06931e-21
526.342,8.06666e-21
526.642,1.59081e-20
526.942,3.12099e-20
527.242,6.0914e-20
527.542,1.18275e-19
527.842,2.28465e-19
528.142,4.39034e-19
528.442,8.39319e-19
528.742,1.59627e-18
529.042,3.02021e-18
529.342,5.68484e-18
529.642,1.06451e-17
529.942,1.98305e-17
530.242,3.67509e-17
530.542,6.77568e-17
530.842,1.24276e-16
531.142,2.26765e-16
531.442,4.11635e-16
531.742,7.43363e-16
532.042,1.33549e-15
532.342,2.38688e-15
532.642,4.24396e-15
532.942,7.50695e-15
533.242,1.32101e-14
533.542,2.3126e-14
533.842,4.02758e-14
534.142,6.97814e-14
534.442,1.20278e-13
534.742,2.06245e-13
535.042,3.51829e-13
535.342,5.97077e-13
535.642,1.00805e-12
535.942,1.69309e-12
536.242,2.82899e-12
536.542,4.70256e-12
536.842,7.77657e-12
537.142,1.27936e-11
537.442,2.09386e-11
537.742,3.4092e-11
538.042,5.52217e-11
538.342,8.89851e-11
538.642,1.42651e-10
538.942,2.27502e-10
539.242,3.60949e-10
539.542,5.69714e-10
539.842,8.94579e-10
540.142,1.39744e-09
540.442,2.17168e-09
540.742,3.35745e-09
541.042,5.16387e-09
541.342,7.90118e-09
541.642,1.20271e-08
541.942,1.82128e-08
542.242,2.74376e-08
542.542,4.11213e-08
542.842,6.13108e-08
543.142,9.09408e-08
543.442,1.34193e-07
543.742,1.96995e-07
544.042,2.87693e-07
544.342,4.17979e-07
544.642,6.0413e-07
544.942,8.68675e-07
545.242,1.24261e-06
545.542,1.76833e-06
545.842,2.50347e-06
546.142,3.52593e-06
546.442,4.94032e-06
546.742,6.88632e-06
547.042,9.54927e-06
547.342,1.31736e-05
547.642,1.80796e-05
547.942,2.46845e-05
548.242,3.35282e-05
548.542,4.53052e-05
548.842,6.09027e-05
549.142,8.14471e-05
549.442,0.000108359
549.742,0.000143419
550.042,0.000188842
550.342,0.000247367
550.642,0.000322355
550.942,0.000417906
551.242,0.000538982
551.542,0.000691545
551.842,0.000882709
552.142,0.0011209
552.442,0.001416
552.742,0.00177956
553.042,0.00222492
553.342,0.00276736
553.642,0.00342427
553.942,0.00421523
554.242,0.00516209
554.542,0.00628898
554.842,0.0076223
555.142,0.00919057
555.442,0.0110243
555.742,0.0131555
556.042,0.0156177
556.342,0.018445
556.642,0.0216715
556.942,0.0253309
557.242,0.0294553
557.542,0.0340743
557.842,0.0392141
558.142,0.044896
558.442,0.0511356
558.742,0.0579416
559.042,0.0653144
559.342,0.073245
559.642,0.0817142
559.942,0.0906918
560.242,0.100136
560.542,0.109992
560.842,0.120195
561.142,0.130665
561.442,0.141314
561.742,0.152041
562.042,0.162737
562.342,0.173287
562.642,0.183567
562.942,0.193452
563.242,0.202816
563.542,0.211536
563.842,0.219491
564.142,0.226568
564.442,0.232666
564.742,0.237694
565.042,0.241576
565.342,0.244253
565.642,0.245684
565.942,0.245909
566.242,0.245582
566.542,0.244882
566.842,0.243811
567.142,0.242374
567.442,0.240578
567.742,0.238432
568.042,0.235944
568.342,0.233127
568.642,0.229991
568.942,0.226552
569.242,0.222824
569.542,0.218823
569.842,0.214566
570.142,0.210071
570.442,0.205356
570.742,0.200441
571.042,0.195346
571.342,0.190089
571.642,0.184692
571.942,0.179175
572.242,0.173557
572.542,0.167859
572.842,0.1621
573.142,0.156301
573.442,0.150478
573.742,0.144652
574.042,0.13884
574.342,0.133057
574.642,0.127321
574.942,0.121647
575.242,0.116048
575.542,0.110538
575.842,0.105129
576.142,0.0998324
576.442,0.0946579
576.742,0.0896147
577.042,0.0847109
577.342,0.0799533
577.642,0.0753477
577.942,0.0708992
578.242,0.0666116
578.542,0.0624878
578.842,0.05853
579.142,0.0547392
579.442,0.0511158
579.742,0.0476595
580.042,0.0443691
580.342,0.0412429
580.642,0.0382785
580.942,0.035473
581.242,0.032823
581.542,0.0303246
581.842,0.0279737
582.142,0.0257656
582.442,0.0236957
582.742,0.0217588
583.042,0.0199498
583.342,0.0182633
583.642,0.0166938
583.942,0.015236
584.242,0.0138842
584.542,0.0126331
584.842,0.0114772
585.142,0.0104112
585.442,0.00942973
585.742,0.00852779
586.042,0.00770036
586.342,0.00694261
586.642,0.00624988
586.942,0.00561769
587.242,0.00504175
587.542,0.00451795
587.842,0.00404239
588.142,0.00361138
588.442,0.0032214
588.742,0.00286916
589.042,0.00255153
589.342,0.0022656
589.642,0.00200865
589.942,0.00177812
590.242,0.00157165
590.542,0.00138704
590.842,0.00122224
591.142,0.00107538
591.442,0.000944728
591.742,0.000828681
592.042,0.00072578
592.342,0.000634687
592.642,0.000554181
592.942,0.000483149
593.242,0.000420579
593.542,0.000365553
593.842,0.000317243
594.142,0.000274897
594.442,0.00023784
594.742,0.000205464
595.042,0.000177225
595.342,0.000152634
595.642,0.000131255
595.742,0.000124774

File: curve_total_fit.dat
507.442,0.99562
507.742,0.995911
508.042,0.996216
508.342,0.996534
508.642,0.996866
508.942,0.997212
509.242,0.997574
509.542,0.997951
509.842,0.998344
510.142,0.998753
510.442,0.99918
510.742,0.999624
511.042,1.00009
511.342,1.00057
511.642,1.00107
511.942,1.00159
512.242,1.00213
512.542,1.00269
512.842,1.00328
513.142,1.00388
513.442,1.00451
513.742,1.00517
514.042,1.00585
514.342,1.00655
514.642,1.00728
514.942,1.00803
515.242,1.00881
515.542,1.00962
515.842,1.01046
516.142,1.01133
516.442,1.01222
516.742,1.01315
517.042,1.01411
517.342,1.0151
517.642,1.01612
517.942,1.01718
518.242,1.01826
518.542,1.01939
518.842,1.02055
519.142,1.02174
519.442,1.02297
519.742,1.02424
520.042,1.02554
520.342,1.02688
520.642,1.02826
520.942,1.02968
521.242,1.03114
521.542,1.03264
521.842,1.03419
522.142,1.03577
522.442,1.03739
522.742,1.03906
523.042,1.04077
523.342,1.04252
523.642,1.04432
523.942,1.04615
524.242,1.04804
524.542,1.04997
524.842,1.05194
525.142,1.05396
525.442,1.05602
525.742,1.05812
526.042,1.06028
526.342,1.06247
526.642,1.06472
526.942,1.06701
527.242,1.06934
527.542,1.07172
527.842,1.07414
528.142,1.07661
528.442,1.07912
528.742,1.08168
529.042,1.08428
529.342,1.08693
529.642,1.08961
529.942,1.09234
530.242,1.09512
530.542,1.09793
530.842,1.10078
531.142,1.10368
531.442,1.10661
531.742,1.10958
532.042,1.11259
532.342,1.11563
532.642,1.11871
532.942,1.12183
533.242,1.12497
533.542,1.12815
533.842,1.13136
534.142,1.1346
534.442,1.13787
534.742,1.14116
535.042,1.14448
535.342,1.14782
535.642,1.15119
535.942,1.15457
536.242,1.15798
536.542,1.1614
536.842,1.16483
537.142,1.16828
537.442,1.17174
537.742,1.17521
538.042,1.17868
538.342,1.18216
538.642,1.18564
538.942,1.18913
539.242,1.19261
539.542,1.19609
539.842,1.19956
540.142,1.20303
540.442,1.20648
540.742,1.20993
541.042,1.21335
541.342,1.21676
541.642,1.22015
541.942,1.22352
542.242,1.22686
542.542,1.23018
542.842,1.23347
543.142,1.23672
543.442,1.23994
543.742,1.24312
544.042,1.24626
544.342,1.24936
544.642,1.25242
544.942,1.25543
545.242,1.25839
545.542,1.2613
545.842,1.26415
546.142,1.26695
546.442,1.26969
546.742,1.27236
547.042,1.27498
547.342,1.27753
547.642,1.28002
547.942,1.28243
548.242,1.28478
548.542,1.28705
548.842,1.28926
549.142,1.29138
549.442,1.29344
549.742,1.29542
550.042,1.29733
550.342,1.29917
550.642,1.30093
550.942,1.30263
551.242,1.30427
551.542,1.30584
551.842,1.30736
552.142,1.30884
552.442,1.31027
552.742,1.31168
553.042,1.31308
553.342,1.31447
553.642,1.31588
553.942,1.31732
554.242,1.31882
554.542,1.3204
554.842,1.32209
555.142,1.32391
555.442,1.32589
555.742,1.32807
556.042,1.32981
556.342,1.33055
556.642,1.33037
556.942,1.32933
557.242,1.32752
557.542,1.32505
557.842,1.32202
558.142,1.31856
558.442,1.3148
558.742,1.31084
559.042,1.3068
559.342,1.30281
559.642,1.29897
559.942,1.29536
560.242,1.29206
560.542,1.28913
560.842,1.28661
561.142,1.28453
561.442,1.28287
561.742,1.28163
562.042,1.28076
562.342,1.28021
562.642,1.2799
562.942,1.27975
563.242,1.27966
563.542,1.27952
563.842,1.27923
564.142,1.27867
564.442,1.27773
564.742,1.27631
565.042,1.27433
565.342,1.27168
565.642,1.26831
565.942,1.26424
566.242,1.26007
566.542,1.25596
566.842,1.25188
567.142,1.24779
567.442,1.24368
567.742,1.23952
568.042,1.23528
568.342,1.23096
568.642,1.22653
568.942,1.22199
569.242,1.21732
569.542,1.21253
569.842,1.2076
570.142,1.20255
570.442,1.19737
570.742,1.19206
571.042,1.18665
571.342,1.18113
571.642,1.17552
571.942,1.16982
572.242,1.16406
572.542,1.15825
572.842,1.1524
573.142,1.14652
573.442,1.14064
573.742,1.13477
574.042,1.12892
574.342,1.12311
574.642,1.11735
574.942,1.11166
575.242,1.10604
575.542,1.10052
575.842,1.09511
576.142,1.0898
576.442,1.08462
576.742,1.07958
577.042,1.07467
577.342,1.06991
577.642,1.0653
577.942,1.06085
578.242,1.05657
578.542,1.05244
578.842,1.04848
579.142,1.04469
579.442,1.04107
579.742,1.03761
580.042,1.03432
580.342,1.03119
580.642,1.02823
580.942,1.02542
581.242,1.02277
581.542,1.02028
581.842,1.01793
582.142,1.01572
582.442,1.01365
582.742,1.01171
583.042,1.0099
583.342,1.00821
583.642,1.00665
583.942,1.00519
584.242,1.00384
584.542,1.00258
584.842,1.00143
585.142,1.00036
585.442,0.999381
585.742,0.998479
586.042,0.997652
586.342,0.996894
586.642,0.996201
586.942,0.995569
587.242,0.994993
587.542,0.994469
587.842,0.993994
588.142,0.993563
588.442,0.993173
588.742,0.992821
589.042,0.992503
589.342,0.992217
589.642,0.99196
589.942,0.99173
590.242,0.991523
590.542,0.991338
590.842,0.991174
591.142,0.991027
591.442,0.990896
591.742,0.99078
592.042,0.990677
592.342,0.990586
592.642,0.990506
592.942,0.990435
593.242,0.990372
593.542,0.990317
593.842,0.990269
594.142,0.990226
594.442,0.990189
594.742,0.990157
595.042,0.990129
595.342,0.990104
595.642,0.990083
595.742,0.990076

File: raman_peaks.csv
505.106, 0.99652
507.442, 1.00182
509.274, 1.01049
510.939, 1.01806
513.447, 1.01524
515.952, 1.01748
518.457, 1.01962
520.12, 1.03099
521.783, 1.04271
523.447, 1.0527
525.278, 1.06282
527.611, 1.0707
530.115, 1.07503
530.942, 1.08676
531.769, 1.09965
532.598, 1.10885
533.426, 1.12059
534.253, 1.13279
535.081, 1.14372
535.907, 1.15684
536.734, 1.16927
537.561, 1.18204
539.225, 1.19238
540.052, 1.20412
541.301, 1.211
541.712, 1.22068
542.539, 1.2331
543.366, 1.24599
544.194, 1.25612
545.858, 1.26761
547.52, 1.27932
549.185, 1.28862
550.849, 1.29896
552.511, 1.31137
554.175, 1.32136
556.512, 1.32407
558.356, 1.31573
559.198, 1.30557
560.04, 1.29587
560.88, 1.28848
562.557, 1.27899
564.652, 1.26995
566.332, 1.25609
568.01, 1.24499
568.433, 1.23714
568.439, 1.22884
568.444, 1.22054
570.111, 1.22696
570.12, 1.21244
570.413, 1.19099
570.546, 1.20067
571.262, 1.17069
571.533, 1.18175
572.382, 1.16145
572.46, 1.14877
573.093, 1.13976
573.516, 1.13146
574.151, 1.119
574.783, 1.11068
575.205, 1.10445
575.628, 1.09683
576.051, 1.08853
576.894, 1.07791
577.736, 1.06821
578.578, 1.05758
579.42, 1.04834
580.261, 1.03911
581.102, 1.03125
581.943, 1.02293
582.784, 1.01462
584.461, 1.00571
586.137, 0.997485
586.978, 0.988707
588.654, 0.980372
590.956, 0.974097
593.672, 0.972423
595.76, 0.973299