Folder: gan/mohanta_2013/no_buffer/raman

Note: mohanta_2013/no_buffer/raman/summary.md
## Raman

#### Curve 1 (Disordered Peak)
**Type**: Skewed Gaussian\
**amplitude:** 0.1\
**center** 540.0\
**σ** 20.0
**σ2** 10.2


#### Curve 2 (Ordered Peak)
**Type**:Skewed Gaussian\
**amplitude** 0.3\
**center** 569.4\
**σ** 11.8\
**σ2** 10.9


## S<sup>2</sup>
**Disordered Curve Integrated Area:** 3.725696\
**Ordered Curve Integrated Area:** 7.472299\
**S<sup>2</sup>:** 0.6673






















## Reference
Data analyzed from 10.1016/j.tsf.2013.03.112

Note: README.md
## Data Repository for Disorder and Its Impact on Mobility of Undoped GaN
[![DOI](https://zenodo.org/badge/664896126.svg)](https://zenodo.org/badge/latestdoi/664896126)

File: curve_1_fit.dat
497.553,0.0103516
497.953,0.0107983
498.353,0.0112598
498.753,0.0117363
499.153,0.012228
499.553,0.0127353
499.953,0.0132583
500.353,0.0137973
500.753,0.0143524
501.153,0.0149239
501.553,0.015512
501.953,0.0161168
502.353,0.0167384
502.753,0.0173771
503.153,0.0180329
503.553,0.0187061
503.953,0.0193965
504.353,0.0201044
504.753,0.0208299
505.153,0.0215728
505.553,0.0223334
505.953,0.0231115
506.353,0.0239071
506.753,0.0247202
507.153,0.0255508
507.553,0.0263987
507.953,0.0272639
508.353,0.0281461
508.753,0.0290453
509.153,0.0299612
509.553,0.0308936
509.953,0.0318423
510.353,0.032807
510.753,0.0337875
511.153,0.0347833
511.553,0.0357941
511.953,0.0368196
512.353,0.0378593
512.753,0.0389128
513.153,0.0399797
513.553,0.0410593
513.953,0.0421513
514.353,0.0432549
514.753,0.0443698
515.153,0.0454951
515.553,0.0466304
515.953,0.0477748
516.353,0.0489278
516.753,0.0500886
517.153,0.0512563
517.553,0.0524304
517.953,0.0536099
518.353,0.054794
518.753,0.0559818
519.153,0.0571725
519.553,0.0583652
519.953,0.059559
520.353,0.0607529
520.753,0.0619459
521.153,0.063137
521.553,0.0643254
521.953,0.0655099
522.353,0.0666895
522.753,0.0678633
523.153,0.06903
523.553,0.0701888
523.953,0.0713385
524.353,0.0724779
524.753,0.0736062
525.153,0.0747221
525.553,0.0758246
525.953,0.0769126
526.353,0.077985
526.753,0.0790407
527.153,0.0800787
527.553,0.0810979
527.953,0.0820972
528.353,0.0830756
528.753,0.084032
529.153,0.0849654
529.553,0.0858749
529.953,0.0867593
530.353,0.0876179
530.753,0.0884495
531.153,0.0892533
531.553,0.0900284
531.953,0.0907739
532.353,0.091489
532.753,0.0921729
533.153,0.0928247
533.553,0.0934437
533.953,0.0940293
534.353,0.0945807
534.753,0.0950972
535.153,0.0955784
535.553,0.0960236
535.953,0.0964322
536.353,0.0968039
536.753,0.0971381
537.153,0.0974345
537.553,0.0976928
537.953,0.0979125
538.353,0.0980935
538.753,0.0982355
539.153,0.0983384
539.553,0.0984021
539.953,0.0984264
540.353,0.0983677
540.753,0.0981588
541.153,0.0977998
541.553,0.0972925
541.953,0.0966392
542.353,0.0958428
542.753,0.094907
543.153,0.0938359
543.553,0.0926344
543.953,0.0913078
544.353,0.089862
544.753,0.0883032
545.153,0.0866381
545.553,0.0848739
545.953,0.0830179
546.353,0.0810777
546.753,0.0790612
547.153,0.0769765
547.553,0.0748316
547.953,0.0726347
548.353,0.070394
548.753,0.0681177
549.153,0.0658137
549.553,0.06349
549.953,0.0611542
550.353,0.0588139
550.753,0.0564762
551.153,0.0541482
551.553,0.0518363
551.953,0.049547
552.353,0.047286
552.753,0.0450589
553.153,0.0428707
553.553,0.0407261
553.953,0.0386293
554.353,0.0365843
554.753,0.0345943
555.153,0.0326622
555.553,0.0307907
555.953,0.0289819
556.353,0.0272374
556.753,0.0255586
557.153,0.0239464
557.553,0.0224015
557.953,0.020924
558.353,0.019514
558.753,0.018171
559.153,0.0168945
559.553,0.0156835
559.953,0.0145369
560.353,0.0134535
560.753,0.0124317
561.153,0.0114698
561.553,0.0105662
561.953,0.00971873
562.353,0.00892553
562.753,0.00818447
563.153,0.00749342
563.553,0.00685017
563.953,0.00625252
564.353,0.00569825
564.753,0.00518514
565.153,0.00471098
565.553,0.00427361
565.953,0.00387088
566.353,0.00350073
566.753,0.0031611
567.153,0.00285004
567.553,0.00256565
567.953,0.00230608
568.353,0.00206959
568.753,0.0018545
569.153,0.00165921
569.553,0.0014822
569.953,0.00132205
570.353,0.00117739
570.753,0.00104694
571.153,0.000929523
571.553,0.000824003
571.953,0.00072934
572.353,0.00064456
572.753,0.000568761
573.153,0.000501104
573.553,0.000440817
573.953,0.000387188
574.353,0.00033956
574.753,0.000297334
575.153,0.000259959
575.553,0.000226933
575.953,0.000197798
576.353,0.000172139
576.753,0.000149578
577.153,0.000129775
577.553,0.00011242
577.953,9.72371e-05
578.353,8.39752e-05
578.753,7.24106e-05
579.153,6.23428e-05
579.553,5.35923e-05
579.953,4.59993e-05
580.353,3.94214e-05
580.753,3.37322e-05
581.153,2.88198e-05
581.553,2.45849e-05
581.953,2.09401e-05
582.353,1.78083e-05
582.753,1.51216e-05
583.153,1.28205e-05
583.553,1.08529e-05
583.953,9.1731e-06
584.353,7.74142e-06
584.753,6.52315e-06
585.153,5.48816e-06
585.553,4.61029e-06
585.953,3.8669e-06
586.353,3.23839e-06
586.753,2.70787e-06
587.153,2.26078e-06
587.553,1.88461e-06
587.953,1.56862e-06
588.353,1.30361e-06
588.753,1.0817e-06
589.153,8.96189e-07
589.553,7.41353e-07
589.953,6.12326e-07
590.353,5.04978e-07
590.753,4.1581e-07
591.153,3.41861e-07
591.553,2.80632e-07
591.953,2.30015e-07
592.353,1.88238e-07
592.753,1.53813e-07
593.153,1.2549e-07
593.553,1.02225e-07
593.953,8.31456e-08
594.353,6.75232e-08
594.753,5.47519e-08
595.153,4.43279e-08
595.553,3.58334e-08
595.953,2.89222e-08
596.353,2.33081e-08
596.753,1.87549e-08
597.153,1.5068e-08
597.553,1.20872e-08
597.953,9.68127e-09
598.353,7.74229e-09
598.753,6.18215e-09
599.153,4.9288e-09
599.553,3.92352e-09
599.953,3.11848e-09
600.353,2.47481e-09
600.753,1.96098e-09
601.153,1.55145e-09
601.553,1.22556e-09
601.953,9.66634e-10
602.353,7.61242e-10
602.753,5.98572e-10
603.153,4.6994e-10
603.553,3.68383e-10
603.953,2.8833e-10
604.353,2.25327e-10
604.753,1.7582e-10
605.153,1.3698e-10
605.553,1.06556e-10
605.953,8.27615e-11
606.353,6.41819e-11
606.753,4.9697e-11
607.153,3.84219e-11
607.553,2.96593e-11
607.953,2.28599e-11
608.353,1.75923e-11
608.753,1.35176e-11
609.153,1.03708e-11
609.553,7.94429e-12
609.953,6.07618e-12
610.353,4.64023e-12
610.753,3.53818e-12
611.153,2.69372e-12
611.553,2.04766e-12
611.953,1.55416e-12
612.353,1.17779e-12
612.753,8.91187e-13
613.153,6.73292e-13
613.553,5.07891e-13
613.953,3.82534e-13
614.353,2.87675e-13
614.753,2.16006e-13
615.153,1.61943e-13
615.553,1.21225e-13
615.953,9.06053e-14
616.353,6.76157e-14
616.753,5.03818e-14
617.153,3.74828e-14
617.253,3.48031e-14

File: curve_2_fit.dat
497.553,2.47739e-09
497.953,3.04155e-09
498.353,3.7299e-09
498.753,4.56881e-09
499.153,5.58999e-09
499.553,6.83159e-09
499.953,8.33941e-09
500.353,1.01684e-08
500.753,1.23843e-08
501.153,1.50658e-08
501.553,1.83069e-08
501.953,2.22199e-08
502.353,2.69384e-08
502.753,3.26215e-08
503.153,3.94583e-08
503.553,4.76733e-08
503.953,5.75327e-08
504.353,6.93517e-08
504.753,8.35031e-08
505.153,1.00427e-07
505.553,1.20643e-07
505.953,1.44762e-07
506.353,1.73504e-07
506.753,2.07715e-07
507.153,2.48387e-07
507.553,2.96683e-07
507.953,3.53964e-07
508.353,4.2182e-07
508.753,5.0211e-07
509.153,5.96998e-07
509.553,7.09006e-07
509.953,8.41065e-07
510.353,9.96579e-07
510.753,1.1795e-06
511.153,1.39439e-06
511.553,1.64655e-06
511.953,1.94208e-06
512.353,2.28803e-06
512.753,2.69252e-06
513.153,3.1649e-06
513.553,3.7159e-06
513.953,4.35782e-06
514.353,5.10479e-06
514.753,5.97295e-06
515.153,6.98076e-06
515.553,8.14928e-06
515.953,9.50251e-06
516.353,1.10678e-05
516.753,1.28761e-05
517.153,1.49628e-05
517.553,1.73677e-05
517.953,2.0136e-05
518.353,2.33189e-05
518.753,2.6974e-05
519.153,3.11664e-05
519.553,3.59691e-05
519.953,4.14643e-05
520.353,4.77444e-05
520.753,5.49128e-05
521.153,6.30851e-05
521.553,7.23907e-05
521.953,8.29739e-05
522.353,9.49955e-05
522.753,0.000108634
523.153,0.000124089
523.553,0.00014158
523.953,0.000161352
524.353,0.000183675
524.753,0.000208846
525.153,0.000237196
525.553,0.000269085
525.953,0.000304912
526.353,0.000345113
526.753,0.000390169
527.153,0.000440601
527.553,0.000496982
527.953,0.000559937
528.353,0.000630145
528.753,0.000708344
529.153,0.000795335
529.553,0.000891988
529.953,0.000999242
530.353,0.00111811
530.753,0.00124969
531.153,0.00139515
531.553,0.00155576
531.953,0.00173288
532.353,0.00192795
532.753,0.00214252
533.153,0.00237825
533.553,0.0026369
533.953,0.00292033
534.353,0.00323052
534.753,0.00356957
535.153,0.00393968
535.553,0.0043432
535.953,0.00478257
536.353,0.00526035
536.753,0.00577925
537.153,0.00634206
537.553,0.00695172
537.953,0.00761126
538.353,0.00832383
538.753,0.0090927
539.153,0.00992123
539.553,0.0108129
539.953,0.0117711
540.353,0.0127997
540.753,0.0139021
541.153,0.0150823
541.553,0.0163439
541.953,0.0176907
542.353,0.0191267
542.753,0.0206555
543.153,0.022281
543.553,0.0240068
543.953,0.0258368
544.353,0.0277745
544.753,0.0298233
545.153,0.0319865
545.553,0.0342674
545.953,0.036669
546.353,0.0391939
546.753,0.0418448
547.153,0.0446238
547.553,0.0475329
547.953,0.0505737
548.353,0.0537474
548.753,0.0570549
549.153,0.0604967
549.553,0.0640726
549.953,0.0677823
550.353,0.0716247
550.753,0.0755982
551.153,0.0797009
551.553,0.08393
551.953,0.0882824
552.353,0.0927542
552.753,0.097341
553.153,0.102038
553.553,0.106839
553.953,0.111737
554.353,0.116727
554.753,0.1218
555.153,0.126947
555.553,0.132161
555.953,0.137432
556.353,0.142749
556.753,0.148102
557.153,0.153481
557.553,0.158872
557.953,0.164264
558.353,0.169646
558.753,0.175003
559.153,0.180322
559.553,0.185591
559.953,0.190794
560.353,0.19592
560.753,0.200952
561.153,0.205878
561.553,0.210684
561.953,0.215354
562.353,0.219877
562.753,0.224237
563.153,0.228422
563.553,0.232419
563.953,0.236215
564.353,0.239799
564.753,0.243158
565.153,0.246282
565.553,0.24916
565.953,0.251784
566.353,0.254144
566.753,0.256233
567.153,0.258043
567.553,0.259568
567.953,0.260804
568.353,0.261745
568.753,0.26239
569.153,0.262735
569.553,0.262775
569.953,0.262472
570.353,0.261814
570.753,0.260804
571.153,0.259446
571.553,0.257745
571.953,0.255709
572.353,0.253346
572.753,0.250664
573.153,0.247676
573.553,0.244391
573.953,0.240823
574.353,0.236987
574.753,0.232895
575.153,0.228565
575.553,0.224011
575.953,0.21925
576.353,0.214301
576.753,0.209179
577.153,0.203903
577.553,0.198491
577.953,0.192962
578.353,0.187332
578.753,0.18162
579.153,0.175844
579.553,0.170021
579.953,0.164169
580.353,0.158303
580.753,0.15244
581.153,0.146595
581.553,0.140784
581.953,0.13502
582.353,0.129317
582.753,0.123687
583.153,0.118141
583.553,0.112692
583.953,0.107349
584.353,0.10212
584.753,0.0970143
585.153,0.0920393
585.553,0.0872011
585.953,0.0825054
586.353,0.0779569
586.753,0.0735594
587.153,0.0693159
587.553,0.0652288
587.953,0.0612996
588.353,0.0575291
588.753,0.0539174
589.153,0.050464
589.553,0.0471679
589.953,0.0440273
590.353,0.0410402
590.753,0.038204
591.153,0.0355156
591.553,0.0329717
591.953,0.0305686
592.353,0.0283022
592.753,0.0261684
593.153,0.0241627
593.553,0.0222806
593.953,0.0205172
594.353,0.0188678
594.753,0.0173275
595.153,0.0158914
595.553,0.0145546
595.953,0.0133122
596.353,0.0121593
596.753,0.0110913
597.153,0.0101034
597.553,0.00919099
597.953,0.00834968
598.353,0.0075751
598.753,0.00686307
599.153,0.00620956
599.553,0.00561066
599.953,0.00506266
600.353,0.004562
600.753,0.00410529
601.153,0.00368929
601.553,0.00331096
601.953,0.00296741
602.353,0.0026559
602.753,0.00237387
603.153,0.00211892
603.553,0.00188879
603.953,0.00168137
604.353,0.00149471
604.753,0.00132697
605.153,0.00117646
605.553,0.0010416
605.953,0.00092096
606.353,0.000813188
606.753,0.000717055
607.153,0.00063143
607.553,0.000555277
607.953,0.000487648
608.353,0.000427675
608.753,0.00037457
609.153,0.000327615
609.553,0.000286158
609.953,0.000249609
610.353,0.000217433
610.753,0.000189149
611.153,0.00016432
611.553,0.000142558
611.953,0.00012351
612.353,0.000106863
612.753,9.2334e-05
613.153,7.96725e-05
613.553,6.86541e-05
613.953,5.90794e-05
614.353,5.07711e-05
614.753,4.35722e-05
615.153,3.73434e-05
615.553,3.19617e-05
615.953,2.73185e-05
616.353,2.33183e-05
616.753,1.98768e-05
617.153,1.69203e-05
617.253,1.62492e-05

File: curve_total_fit.dat
497.553,1.2856
497.953,1.28604
498.353,1.2865
498.753,1.28698
499.153,1.28747
499.553,1.28798
499.953,1.2885
500.353,1.28904
500.753,1.2896
501.153,1.29017
501.553,1.29076
501.953,1.29136
502.353,1.29198
502.753,1.29262
503.153,1.29328
503.553,1.29395
503.953,1.29464
504.353,1.29535
504.753,1.29607
505.153,1.29682
505.553,1.29758
505.953,1.29836
506.353,1.29915
506.753,1.29996
507.153,1.3008
507.553,1.30164
507.953,1.30251
508.353,1.30339
508.753,1.30429
509.153,1.30521
509.553,1.30614
509.953,1.30709
510.353,1.30805
510.753,1.30903
511.153,1.31003
511.553,1.31104
511.953,1.31207
512.353,1.31311
512.753,1.31416
513.153,1.31523
513.553,1.31631
513.953,1.3174
514.353,1.3185
514.753,1.31962
515.153,1.32075
515.553,1.32188
515.953,1.32303
516.353,1.32418
516.753,1.32535
517.153,1.32652
517.553,1.32769
517.953,1.32887
518.353,1.33006
518.753,1.33125
519.153,1.33245
519.553,1.33365
519.953,1.33484
520.353,1.33604
520.753,1.33724
521.153,1.33844
521.553,1.33964
521.953,1.34084
522.353,1.34203
522.753,1.34322
523.153,1.3444
523.553,1.34557
523.953,1.34674
524.353,1.34791
524.753,1.34906
525.153,1.3502
525.553,1.35134
525.953,1.35246
526.353,1.35357
526.753,1.35468
527.153,1.35576
527.553,1.35684
527.953,1.3579
528.353,1.35895
528.753,1.35998
529.153,1.361
529.553,1.36201
529.953,1.363
530.353,1.36398
530.753,1.36494
531.153,1.36589
531.553,1.36683
531.953,1.36775
532.353,1.36866
532.753,1.36956
533.153,1.37045
533.553,1.37132
533.953,1.37219
534.353,1.37306
534.753,1.37391
535.153,1.37476
535.553,1.37561
535.953,1.37646
536.353,1.37731
536.753,1.37816
537.153,1.37902
537.553,1.37989
537.953,1.38077
538.353,1.38166
538.753,1.38257
539.153,1.3835
539.553,1.38446
539.953,1.38544
540.353,1.38641
540.753,1.3873
541.153,1.38813
541.553,1.38888
541.953,1.38957
542.353,1.39021
542.753,1.39081
543.153,1.39136
543.553,1.39189
543.953,1.39239
544.353,1.39288
544.753,1.39337
545.153,1.39387
545.553,1.39439
545.953,1.39493
546.353,1.39552
546.753,1.39615
547.153,1.39684
547.553,1.39761
547.953,1.39845
548.353,1.39939
548.753,1.40042
549.153,1.40155
549.553,1.40281
549.953,1.40418
550.353,1.40568
550.753,1.40732
551.153,1.40909
551.553,1.41101
551.953,1.41307
552.353,1.41528
552.753,1.41764
553.153,1.42015
553.553,1.42281
553.953,1.42561
554.353,1.42856
554.753,1.43164
555.153,1.43485
555.553,1.4382
555.953,1.44166
556.353,1.44523
556.753,1.44891
557.153,1.45267
557.553,1.45652
557.953,1.46043
558.353,1.4644
558.753,1.46842
559.153,1.47246
559.553,1.47652
559.953,1.48058
560.353,1.48462
560.753,1.48863
561.153,1.49259
561.553,1.49649
561.953,1.50032
562.353,1.50405
562.753,1.50767
563.153,1.51116
563.553,1.51451
563.953,1.51771
564.353,1.52074
564.753,1.52359
565.153,1.52624
565.553,1.52868
565.953,1.5309
566.353,1.53289
566.753,1.53464
567.153,1.53614
567.553,1.53738
567.953,1.53835
568.353,1.53906
568.753,1.53949
569.153,1.53964
569.553,1.5395
569.953,1.53904
570.353,1.53824
570.753,1.53709
571.153,1.53562
571.553,1.53381
571.953,1.53168
572.353,1.52923
572.753,1.52648
573.153,1.52342
573.553,1.52008
573.953,1.51645
574.353,1.51257
574.753,1.50844
575.153,1.50407
575.553,1.49948
575.953,1.49469
576.353,1.48972
576.753,1.48457
577.153,1.47928
577.553,1.47385
577.953,1.4683
578.353,1.46266
578.753,1.45694
579.153,1.45115
579.553,1.44532
579.953,1.43946
580.353,1.43359
580.753,1.42772
581.153,1.42187
581.553,1.41605
581.953,1.41029
582.353,1.40458
582.753,1.39895
583.153,1.3934
583.553,1.38795
583.953,1.3826
584.353,1.37737
584.753,1.37226
585.153,1.36729
585.553,1.36245
585.953,1.35775
586.353,1.3532
586.753,1.34881
587.153,1.34456
587.553,1.34047
587.953,1.33655
588.353,1.33277
588.753,1.32916
589.153,1.32571
589.553,1.32241
589.953,1.31927
590.353,1.31628
590.753,1.31345
591.153,1.31076
591.553,1.30822
591.953,1.30581
592.353,1.30355
592.753,1.30141
593.153,1.29941
593.553,1.29752
593.953,1.29576
594.353,1.29411
594.753,1.29257
595.153,1.29114
595.553,1.2898
595.953,1.28856
596.353,1.2874
596.753,1.28634
597.153,1.28535
597.553,1.28444
597.953,1.28359
598.353,1.28282
598.753,1.28211
599.153,1.28145
599.553,1.28085
599.953,1.28031
600.353,1.27981
600.753,1.27935
601.153,1.27893
601.553,1.27856
601.953,1.27821
602.353,1.2779
602.753,1.27762
603.153,1.27736
603.553,1.27713
603.953,1.27693
604.353,1.27674
604.753,1.27657
605.153,1.27642
605.553,1.27629
605.953,1.27617
606.353,1.27606
606.753,1.27596
607.153,1.27588
607.553,1.2758
607.953,1.27573
608.353,1.27567
608.753,1.27562
609.153,1.27557
609.553,1.27553
609.953,1.27549
610.353,1.27546
610.753,1.27543
611.153,1.27541
611.553,1.27539
611.953,1.27537
612.353,1.27535
612.753,1.27534
613.153,1.27532
613.553,1.27531
613.953,1.2753
614.353,1.27529
614.753,1.27529
615.153,1.27528
615.553,1.27528
615.953,1.27527
616.353,1.27527
616.753,1.27526
617.153,1.27526
617.253,1.27526

File: raman_peaks.csv
494.881, 1.29594
497.553, 1.29689
499.678, 1.30459
502.394, 1.30407
504.899, 1.30494
507.402, 1.31041
510.074, 1.3121
512.244, 1.3151
514.911, 1.32315
517.245, 1.33131
519.241, 1.34509
521.405, 1.35611
524.073, 1.36352
526.581, 1.3607
529.093, 1.35326
531.599, 1.35298
533.431, 1.36165
535.763, 1.37156
538.266, 1.37703
540.77, 1.37974
543.483, 1.38245
545.777, 1.38821
547.445, 1.39204
548.275, 1.40032
549.104, 1.4086
550.769, 1.4179
553.102, 1.42677
554.933, 1.43751
556.596, 1.4482
558.426, 1.46039
559.919, 1.47544
559.926, 1.46506
561.582, 1.48785
562.41, 1.49912
563.239, 1.50832
564.067, 1.51891
564.898, 1.52581
565.894, 1.53463
566.554, 1.5479
567.814, 1.53681
569.056, 1.55383
571.009, 1.5478
572.408, 1.53739
573.252, 1.52516
573.886, 1.51385
574.937, 1.50345
575.78, 1.49329
576.622, 1.48221
576.908, 1.47206
578.306, 1.46258
579.151, 1.44896
579.575, 1.43973
579.997, 1.4335
580.281, 1.42497
581.68, 1.4141
582.525, 1.40094
583.366, 1.39124
584.208, 1.382
585.05, 1.37138
585.684, 1.36077
586.735, 1.3506
587.576, 1.34228
588.834, 1.33442
590.094, 1.32425
590.935, 1.31639
592.611, 1.3084
594.288, 1.29868
596.243, 1.29
597.64, 1.28351
600.148, 1.28023
602.657, 1.27695
605.167, 1.27044
607.679, 1.26254
610.188, 1.25742
612.694, 1.25828
615.199, 1.25915
617.289, 1.25772