Folder: gan/park_2003/1000_xrd

Note: park_2003/1000_xrd/summary.md
## Raman

#### Curve 1 (002)
**Type**: Loretenzian\
**amplitude:** 0.9\
**center** 34.6\
**σ** 0.1


#### Curve 2 (004)
**Type**:Loretenzian\
**amplitude** 0.0\
**center** 73.0\
**σ** 0.3\


## S<sup>2</sup>
**(002) Curve Integrated Area:** 0.131574\
**(004) Curve Integrated Area:** 0.011853\
**S<sup>2</sup>:** 0.7531





















## Reference
XRD analyzed from:
DOI: 10.1016/S0022-0248(03)01033-9

Note: README.md
## Data Repository for Disorder and Its Impact on Mobility of Undoped GaN
[![DOI](https://zenodo.org/badge/664896126.svg)](https://zenodo.org/badge/latestdoi/664896126)

File: curve_1_fit.dat
33.3346,0.0011949
33.4846,0.00152678
33.6346,0.00201875
33.7846,0.002793
33.9346,0.00411487
34.0846,0.00665314
34.2346,0.0125174
34.3846,0.0314729
34.5346,0.167834
34.6846,0.409246
34.8346,0.047105
34.9846,0.0160474
35.1346,0.00795534
35.2846,0.00473062
35.4346,0.00313111
35.5846,0.00222389
35.7346,0.00166044
35.8846,0.00128677
36.0346,0.00102635
36.1846,0.000837648
36.3346,0.000696569
36.4846,0.00058834
36.6346,0.000503502
36.7846,0.000435772
36.9346,0.000380841
37.0846,0.000335676
37.2346,0.000298093
37.3846,0.000266486
37.5346,0.000239651
37.6846,0.000216674
37.8346,0.000196849
37.9846,0.000179626
38.1346,0.000164568
38.2846,0.000151327
38.4346,0.000139622
38.5846,0.000129224
38.7346,0.000119946
38.8846,0.000111632
39.0346,0.000104154
39.1846,9.74024e-05
39.3346,9.12868e-05
39.4846,8.57296e-05
39.6346,8.06648e-05
39.7846,7.60359e-05
39.9346,7.17943e-05
40.0846,6.7898e-05
40.2346,6.43104e-05
40.3846,6.09999e-05
40.5346,5.79385e-05
40.6846,5.51019e-05
40.8346,5.24687e-05
40.9846,5.00198e-05
41.1346,4.77384e-05
41.2846,4.56096e-05
41.4346,4.36201e-05
41.5846,4.1758e-05
41.7346,4.00126e-05
41.8846,3.83744e-05
42.0346,3.68348e-05
42.1846,3.53861e-05
42.3346,3.40211e-05
42.4846,3.27336e-05
42.6346,3.15179e-05
42.7846,3.03686e-05
42.9346,2.92811e-05
43.0846,2.82509e-05
43.2346,2.72742e-05
43.3846,2.63473e-05
43.5346,2.54668e-05
43.6846,2.46298e-05
43.8346,2.38333e-05
43.9846,2.30749e-05
44.1346,2.23521e-05
44.2846,2.16627e-05
44.4346,2.10047e-05
44.5846,2.03763e-05
44.7346,1.97756e-05
44.8846,1.92012e-05
45.0346,1.86514e-05
45.1846,1.81248e-05
45.3346,1.76203e-05
45.4846,1.71365e-05
45.6346,1.66724e-05
45.7846,1.62269e-05
45.9346,1.5799e-05
46.0846,1.53879e-05
46.2346,1.49925e-05
46.3846,1.46122e-05
46.5346,1.42462e-05
46.6846,1.38938e-05
46.8346,1.35543e-05
46.9846,1.32271e-05
47.1346,1.29116e-05
47.2846,1.26072e-05
47.4346,1.23135e-05
47.5846,1.20299e-05
47.7346,1.1756e-05
47.8846,1.14914e-05
48.0346,1.12356e-05
48.1846,1.09883e-05
48.3346,1.0749e-05
48.4846,1.05174e-05
48.6346,1.02933e-05
48.7846,1.00762e-05
48.9346,9.86598e-06
49.0846,9.66224e-06
49.2346,9.46474e-06
49.3846,9.27323e-06
49.5346,9.08748e-06
49.6846,8.90726e-06
49.8346,8.73234e-06
49.9846,8.56253e-06
50.1346,8.39762e-06
50.2846,8.23743e-06
50.4346,8.08178e-06
50.5846,7.9305e-06
50.7346,7.78343e-06
50.8846,7.64041e-06
51.0346,7.5013e-06
51.1846,7.36595e-06
51.3346,7.23424e-06
51.4846,7.10602e-06
51.6346,6.98118e-06
51.7846,6.85961e-06
51.9346,6.74118e-06
52.0846,6.6258e-06
52.2346,6.51335e-06
52.3846,6.40374e-06
52.5346,6.29687e-06
52.6846,6.19266e-06
52.8346,6.09101e-06
52.9846,5.99184e-06
53.1346,5.89508e-06
53.2846,5.80064e-06
53.4346,5.70845e-06
53.5846,5.61845e-06
53.7346,5.53055e-06
53.8846,5.44471e-06
54.0346,5.36084e-06
54.1846,5.2789e-06
54.3346,5.19882e-06
54.4846,5.12055e-06
54.6346,5.04404e-06
54.7846,4.96923e-06
54.9346,4.89607e-06
55.0846,4.82451e-06
55.2346,4.75451e-06
55.3846,4.68602e-06
55.5346,4.61901e-06
55.6846,4.55342e-06
55.8346,4.48921e-06
55.9846,4.42636e-06
56.1346,4.36482e-06
56.2846,4.30455e-06
56.4346,4.24552e-06
56.5846,4.18769e-06
56.7346,4.13104e-06
56.8846,4.07554e-06
57.0346,4.02114e-06
57.1846,3.96782e-06
57.3346,3.91556e-06
57.4846,3.86433e-06
57.6346,3.81409e-06
57.7846,3.76483e-06
57.9346,3.71651e-06
58.0846,3.66912e-06
58.2346,3.62263e-06
58.3846,3.57702e-06
58.5346,3.53226e-06
58.6846,3.48834e-06
58.8346,3.44523e-06
58.9846,3.40292e-06
59.1346,3.36138e-06
59.2846,3.3206e-06
59.4346,3.28055e-06
59.5846,3.24123e-06
59.7346,3.20261e-06
59.8846,3.16467e-06
60.0346,3.12741e-06
60.1846,3.0908e-06
60.3346,3.05482e-06
60.4846,3.01948e-06
60.6346,2.98474e-06
60.7846,2.9506e-06
60.9346,2.91704e-06
61.0846,2.88405e-06
61.2346,2.85161e-06
61.3846,2.81972e-06
61.5346,2.78837e-06
61.6846,2.75753e-06
61.8346,2.7272e-06
61.9846,2.69737e-06
62.1346,2.66803e-06
62.2846,2.63916e-06
62.4346,2.61076e-06
62.5846,2.58281e-06
62.7346,2.55531e-06
62.8846,2.52825e-06
63.0346,2.50161e-06
63.1846,2.4754e-06
63.3346,2.44959e-06
63.4846,2.42419e-06
63.6346,2.39918e-06
63.7846,2.37455e-06
63.9346,2.3503e-06
64.0846,2.32642e-06
64.2346,2.3029e-06
64.3846,2.27974e-06
64.5346,2.25692e-06
64.6846,2.23445e-06
64.8346,2.21231e-06
64.9846,2.1905e-06
65.1346,2.169e-06
65.2846,2.14783e-06
65.4346,2.12696e-06
65.5846,2.10639e-06
65.7346,2.08612e-06
65.8846,2.06615e-06
66.0346,2.04645e-06
66.1846,2.02704e-06
66.3346,2.0079e-06
66.4846,1.98904e-06
66.6346,1.97043e-06
66.7846,1.95209e-06
66.9346,1.934e-06
67.0846,1.91617e-06
67.2346,1.89857e-06
67.3846,1.88122e-06
67.5346,1.86411e-06
67.6846,1.84723e-06
67.8346,1.83057e-06
67.9846,1.81414e-06
68.1346,1.79794e-06
68.2846,1.78194e-06
68.4346,1.76616e-06
68.5846,1.75059e-06
68.7346,1.73522e-06
68.8846,1.72006e-06
69.0346,1.70509e-06
69.1846,1.69032e-06
69.3346,1.67574e-06
69.4846,1.66134e-06
69.6346,1.64714e-06
69.7846,1.63311e-06
69.9346,1.61926e-06
70.0846,1.60558e-06
70.2346,1.59208e-06
70.3846,1.57875e-06
70.5346,1.56559e-06
70.6846,1.55259e-06
70.8346,1.53975e-06
70.9846,1.52707e-06
71.1346,1.51454e-06
71.2846,1.50217e-06
71.4346,1.48995e-06
71.5846,1.47788e-06
71.7346,1.46595e-06
71.8846,1.45417e-06
72.0346,1.44253e-06
72.1846,1.43103e-06
72.3346,1.41966e-06
72.4846,1.40843e-06
72.6346,1.39734e-06
72.7846,1.38637e-06
72.9346,1.37553e-06
73.0846,1.36482e-06
73.2346,1.35423e-06
73.3846,1.34377e-06
73.5346,1.33343e-06
73.6846,1.3232e-06
73.7346,1.31982e-06

File: curve_2_fit.dat
33.3346,3.10391e-07
33.4846,3.12752e-07
33.6346,3.1514e-07
33.7846,3.17556e-07
33.9346,3.19999e-07
34.0846,3.2247e-07
34.2346,3.24971e-07
34.3846,3.275e-07
34.5346,3.30059e-07
34.6846,3.32649e-07
34.8346,3.35269e-07
34.9846,3.3792e-07
35.1346,3.40602e-07
35.2846,3.43317e-07
35.4346,3.46064e-07
35.5846,3.48844e-07
35.7346,3.51658e-07
35.8846,3.54506e-07
36.0346,3.57389e-07
36.1846,3.60307e-07
36.3346,3.63261e-07
36.4846,3.66252e-07
36.6346,3.69279e-07
36.7846,3.72344e-07
36.9346,3.75448e-07
37.0846,3.78591e-07
37.2346,3.81773e-07
37.3846,3.84995e-07
37.5346,3.88259e-07
37.6846,3.91564e-07
37.8346,3.94911e-07
37.9846,3.98302e-07
38.1346,4.01737e-07
38.2846,4.05216e-07
38.4346,4.0874e-07
38.5846,4.12311e-07
38.7346,4.15929e-07
38.8846,4.19594e-07
39.0346,4.23308e-07
39.1846,4.27072e-07
39.3346,4.30886e-07
39.4846,4.34751e-07
39.6346,4.38669e-07
39.7846,4.4264e-07
39.9346,4.46665e-07
40.0846,4.50745e-07
40.2346,4.54882e-07
40.3846,4.59075e-07
40.5346,4.63327e-07
40.6846,4.67638e-07
40.8346,4.7201e-07
40.9846,4.76443e-07
41.1346,4.80939e-07
41.2846,4.85499e-07
41.4346,4.90124e-07
41.5846,4.94815e-07
41.7346,4.99574e-07
41.8846,5.04402e-07
42.0346,5.09301e-07
42.1846,5.14271e-07
42.3346,5.19314e-07
42.4846,5.24432e-07
42.6346,5.29626e-07
42.7846,5.34897e-07
42.9346,5.40248e-07
43.0846,5.45679e-07
43.2346,5.51193e-07
43.3846,5.5679e-07
43.5346,5.62473e-07
43.6846,5.68244e-07
43.8346,5.74104e-07
43.9846,5.80055e-07
44.1346,5.86099e-07
44.2846,5.92238e-07
44.4346,5.98474e-07
44.5846,6.04808e-07
44.7346,6.11245e-07
44.8846,6.17784e-07
45.0346,6.24429e-07
45.1846,6.31181e-07
45.3346,6.38044e-07
45.4846,6.45019e-07
45.6346,6.5211e-07
45.7846,6.59318e-07
45.9346,6.66646e-07
46.0846,6.74096e-07
46.2346,6.81673e-07
46.3846,6.89378e-07
46.5346,6.97214e-07
46.6846,7.05185e-07
46.8346,7.13293e-07
46.9846,7.21542e-07
47.1346,7.29935e-07
47.2846,7.38475e-07
47.4346,7.47165e-07
47.5846,7.56011e-07
47.7346,7.65014e-07
47.8846,7.74179e-07
48.0346,7.83509e-07
48.1846,7.93009e-07
48.3346,8.02684e-07
48.4846,8.12536e-07
48.6346,8.2257e-07
48.7846,8.32792e-07
48.9346,8.43206e-07
49.0846,8.53816e-07
49.2346,8.64627e-07
49.3846,8.75646e-07
49.5346,8.86876e-07
49.6846,8.98323e-07
49.8346,9.09994e-07
49.9846,9.21894e-07
50.1346,9.34028e-07
50.2846,9.46404e-07
50.4346,9.59027e-07
50.5846,9.71905e-07
50.7346,9.85044e-07
50.8846,9.98451e-07
51.0346,1.01213e-06
51.1846,1.0261e-06
51.3346,1.04036e-06
51.4846,1.05491e-06
51.6346,1.06978e-06
51.7846,1.08496e-06
51.9346,1.10046e-06
52.0846,1.1163e-06
52.2346,1.13249e-06
52.3846,1.14902e-06
52.5346,1.16593e-06
52.6846,1.18321e-06
52.8346,1.20088e-06
52.9846,1.21894e-06
53.1346,1.23742e-06
53.2846,1.25632e-06
53.4346,1.27565e-06
53.5846,1.29544e-06
53.7346,1.31569e-06
53.8846,1.33642e-06
54.0346,1.35764e-06
54.1846,1.37937e-06
54.3346,1.40163e-06
54.4846,1.42443e-06
54.6346,1.44779e-06
54.7846,1.47173e-06
54.9346,1.49627e-06
55.0846,1.52143e-06
55.2346,1.54723e-06
55.3846,1.57369e-06
55.5346,1.60083e-06
55.6846,1.62869e-06
55.8346,1.65727e-06
55.9846,1.68662e-06
56.1346,1.71675e-06
56.2846,1.7477e-06
56.4346,1.77949e-06
56.5846,1.81216e-06
56.7346,1.84573e-06
56.8846,1.88025e-06
57.0346,1.91574e-06
57.1846,1.95225e-06
57.3346,1.98981e-06
57.4846,2.02847e-06
57.6346,2.06826e-06
57.7846,2.10924e-06
57.9346,2.15145e-06
58.0846,2.19493e-06
58.2346,2.23975e-06
58.3846,2.28596e-06
58.5346,2.33361e-06
58.6846,2.38276e-06
58.8346,2.43349e-06
58.9846,2.48585e-06
59.1346,2.53992e-06
59.2846,2.59577e-06
59.4346,2.65349e-06
59.5846,2.71315e-06
59.7346,2.77485e-06
59.8846,2.83867e-06
60.0346,2.90473e-06
60.1846,2.97312e-06
60.3346,3.04395e-06
60.4846,3.11734e-06
60.6346,3.19342e-06
60.7846,3.27231e-06
60.9346,3.35417e-06
61.0846,3.43914e-06
61.2346,3.52738e-06
61.3846,3.61906e-06
61.5346,3.71436e-06
61.6846,3.81347e-06
61.8346,3.91661e-06
61.9846,4.02398e-06
62.1346,4.13583e-06
62.2846,4.25241e-06
62.4346,4.37399e-06
62.5846,4.50086e-06
62.7346,4.63333e-06
62.8846,4.77174e-06
63.0346,4.91644e-06
63.1846,5.06782e-06
63.3346,5.22631e-06
63.4846,5.39234e-06
63.6346,5.56642e-06
63.7846,5.74906e-06
63.9346,5.94084e-06
64.0846,6.14238e-06
64.2346,6.35435e-06
64.3846,6.57749e-06
64.5346,6.81258e-06
64.6846,7.06051e-06
64.8346,7.32222e-06
64.9846,7.59876e-06
65.1346,7.89126e-06
65.2846,8.20098e-06
65.4346,8.5293e-06
65.5846,8.87773e-06
65.7346,9.24795e-06
65.8846,9.64183e-06
66.0346,1.00614e-05
66.1846,1.0509e-05
66.3346,1.09871e-05
66.4846,1.14986e-05
66.6346,1.20466e-05
66.7846,1.26348e-05
66.9346,1.32672e-05
67.0846,1.39482e-05
67.2346,1.4683e-05
67.3846,1.54775e-05
67.5346,1.63382e-05
67.6846,1.72727e-05
67.8346,1.82897e-05
67.9846,1.93993e-05
68.1346,2.0613e-05
68.2846,2.19442e-05
68.4346,2.34086e-05
68.5846,2.50246e-05
68.7346,2.68138e-05
68.8846,2.8802e-05
69.0346,3.10197e-05
69.1846,3.35036e-05
69.3346,3.62982e-05
69.4846,3.94575e-05
69.6346,4.30476e-05
69.7846,4.71508e-05
69.9346,5.18694e-05
70.0846,5.7333e-05
70.2346,6.3707e-05
70.3846,7.12052e-05
70.5346,8.01081e-05
70.6846,9.07897e-05
70.8346,0.000103756
70.9846,0.000119709
71.1346,0.000139638
71.2846,0.000164982
71.4346,0.000197889
71.5846,0.000241689
71.7346,0.000301759
71.8846,0.000387238
72.0346,0.00051466
72.1846,0.000716429
72.3346,0.001063
72.4846,0.00173069
72.6346,0.00325715
72.7846,0.0077898
72.9346,0.023882
73.0846,0.0210457
73.2346,0.00688219
73.3846,0.002983
73.5346,0.00161994
73.6846,0.00100855
73.7346,0.000879707

File: curve_total_fit.dat
33.3346,0.921195
33.4846,0.921527
33.6346,0.922019
33.7846,0.922793
33.9346,0.924115
34.0846,0.926653
34.2346,0.932518
34.3846,0.951473
34.5346,1.08783
34.6846,1.32925
34.8346,0.967105
34.9846,0.936048
35.1346,0.927956
35.2846,0.924731
35.4346,0.923131
35.5846,0.922224
35.7346,0.921661
35.8846,0.921287
36.0346,0.921027
36.1846,0.920838
36.3346,0.920697
36.4846,0.920589
36.6346,0.920504
36.7846,0.920436
36.9346,0.920381
37.0846,0.920336
37.2346,0.920298
37.3846,0.920267
37.5346,0.92024
37.6846,0.920217
37.8346,0.920197
37.9846,0.92018
38.1346,0.920165
38.2846,0.920152
38.4346,0.92014
38.5846,0.92013
38.7346,0.92012
38.8846,0.920112
39.0346,0.920105
39.1846,0.920098
39.3346,0.920092
39.4846,0.920086
39.6346,0.920081
39.7846,0.920076
39.9346,0.920072
40.0846,0.920068
40.2346,0.920065
40.3846,0.920061
40.5346,0.920058
40.6846,0.920056
40.8346,0.920053
40.9846,0.92005
41.1346,0.920048
41.2846,0.920046
41.4346,0.920044
41.5846,0.920042
41.7346,0.920041
41.8846,0.920039
42.0346,0.920037
42.1846,0.920036
42.3346,0.920035
42.4846,0.920033
42.6346,0.920032
42.7846,0.920031
42.9346,0.92003
43.0846,0.920029
43.2346,0.920028
43.3846,0.920027
43.5346,0.920026
43.6846,0.920025
43.8346,0.920024
43.9846,0.920024
44.1346,0.920023
44.2846,0.920022
44.4346,0.920022
44.5846,0.920021
44.7346,0.92002
44.8846,0.92002
45.0346,0.920019
45.1846,0.920019
45.3346,0.920018
45.4846,0.920018
45.6346,0.920017
45.7846,0.920017
45.9346,0.920016
46.0846,0.920016
46.2346,0.920016
46.3846,0.920015
46.5346,0.920015
46.6846,0.920015
46.8346,0.920014
46.9846,0.920014
47.1346,0.920014
47.2846,0.920013
47.4346,0.920013
47.5846,0.920013
47.7346,0.920013
47.8846,0.920012
48.0346,0.920012
48.1846,0.920012
48.3346,0.920012
48.4846,0.920011
48.6346,0.920011
48.7846,0.920011
48.9346,0.920011
49.0846,0.920011
49.2346,0.92001
49.3846,0.92001
49.5346,0.92001
49.6846,0.92001
49.8346,0.92001
49.9846,0.920009
50.1346,0.920009
50.2846,0.920009
50.4346,0.920009
50.5846,0.920009
50.7346,0.920009
50.8846,0.920009
51.0346,0.920009
51.1846,0.920008
51.3346,0.920008
51.4846,0.920008
51.6346,0.920008
51.7846,0.920008
51.9346,0.920008
52.0846,0.920008
52.2346,0.920008
52.3846,0.920008
52.5346,0.920007
52.6846,0.920007
52.8346,0.920007
52.9846,0.920007
53.1346,0.920007
53.2846,0.920007
53.4346,0.920007
53.5846,0.920007
53.7346,0.920007
53.8846,0.920007
54.0346,0.920007
54.1846,0.920007
54.3346,0.920007
54.4846,0.920007
54.6346,0.920006
54.7846,0.920006
54.9346,0.920006
55.0846,0.920006
55.2346,0.920006
55.3846,0.920006
55.5346,0.920006
55.6846,0.920006
55.8346,0.920006
55.9846,0.920006
56.1346,0.920006
56.2846,0.920006
56.4346,0.920006
56.5846,0.920006
56.7346,0.920006
56.8846,0.920006
57.0346,0.920006
57.1846,0.920006
57.3346,0.920006
57.4846,0.920006
57.6346,0.920006
57.7846,0.920006
57.9346,0.920006
58.0846,0.920006
58.2346,0.920006
58.3846,0.920006
58.5346,0.920006
58.6846,0.920006
58.8346,0.920006
58.9846,0.920006
59.1346,0.920006
59.2846,0.920006
59.4346,0.920006
59.5846,0.920006
59.7346,0.920006
59.8846,0.920006
60.0346,0.920006
60.1846,0.920006
60.3346,0.920006
60.4846,0.920006
60.6346,0.920006
60.7846,0.920006
60.9346,0.920006
61.0846,0.920006
61.2346,0.920006
61.3846,0.920006
61.5346,0.920007
61.6846,0.920007
61.8346,0.920007
61.9846,0.920007
62.1346,0.920007
62.2846,0.920007
62.4346,0.920007
62.5846,0.920007
62.7346,0.920007
62.8846,0.920007
63.0346,0.920007
63.1846,0.920008
63.3346,0.920008
63.4846,0.920008
63.6346,0.920008
63.7846,0.920008
63.9346,0.920008
64.0846,0.920008
64.2346,0.920009
64.3846,0.920009
64.5346,0.920009
64.6846,0.920009
64.8346,0.92001
64.9846,0.92001
65.1346,0.92001
65.2846,0.92001
65.4346,0.920011
65.5846,0.920011
65.7346,0.920011
65.8846,0.920012
66.0346,0.920012
66.1846,0.920013
66.3346,0.920013
66.4846,0.920013
66.6346,0.920014
66.7846,0.920015
66.9346,0.920015
67.0846,0.920016
67.2346,0.920017
67.3846,0.920017
67.5346,0.920018
67.6846,0.920019
67.8346,0.92002
67.9846,0.920021
68.1346,0.920022
68.2846,0.920024
68.4346,0.920025
68.5846,0.920027
68.7346,0.920029
68.8846,0.920031
69.0346,0.920033
69.1846,0.920035
69.3346,0.920038
69.4846,0.920041
69.6346,0.920045
69.7846,0.920049
69.9346,0.920053
70.0846,0.920059
70.2346,0.920065
70.3846,0.920073
70.5346,0.920082
70.6846,0.920092
70.8346,0.920105
70.9846,0.920121
71.1346,0.920141
71.2846,0.920166
71.4346,0.920199
71.5846,0.920243
71.7346,0.920303
71.8846,0.920389
72.0346,0.920516
72.1846,0.920718
72.3346,0.921064
72.4846,0.921732
72.6346,0.923259
72.7846,0.927791
72.9346,0.943883
73.0846,0.941047
73.2346,0.926884
73.3846,0.922984
73.5346,0.921621
73.6846,0.92101
73.7346,0.920881