Folder: gan/park_2003/900C_xrd

Note: park_2003/900C_xrd/summary.md
## Raman

#### Curve 1 (002) 
**Type**: Loretenzian\
**amplitude:** 0.4\
**center** 34.6\
**σ** 0.1


#### Curve 2 (004) 
**Type**:Gaussian\
**amplitude** 0.0\
**center** 73.0\
**σ** 0.2\


## S<sup>2</sup>
**(002) Curve Integrated Area:** 0.065551\
**(004) Curve Integrated Area:** 0.005911\
**S<sup>2</sup>:** 0.7542



















## Reference
XRD analyzed from:
DOI: 10.1016/S0022-0248(03)01033-9

Note: README.md
## Data Repository for Disorder and Its Impact on Mobility of Undoped GaN
[![DOI](https://zenodo.org/badge/664896126.svg)](https://zenodo.org/badge/latestdoi/664896126)

File: curve_1_fit.dat
33.3714,0.000641318
33.5214,0.000822767
33.6714,0.00109363
33.8214,0.00152387
33.9714,0.00226799
34.1214,0.00372483
34.2714,0.0072007
34.4214,0.0191793
34.5714,0.121051
34.7214,0.138131
34.8714,0.0203769
35.0214,0.00747563
35.1714,0.00382676
35.3214,0.00231629
35.4714,0.00155041
35.6214,0.00110974
35.7714,0.000833271
35.9214,0.00064854
36.0714,0.000519044
36.2214,0.000424779
36.3714,0.000354036
36.5214,0.000299595
36.6714,0.000256808
36.8214,0.000222571
36.9714,0.000194751
37.1214,0.000171837
37.2714,0.000152741
37.4214,0.00013666
37.5714,0.000122991
37.7214,0.000111274
37.8714,0.000101155
38.0214,9.23564e-05
38.1714,8.46574e-05
38.3214,7.78824e-05
38.4714,7.18893e-05
38.6214,6.65622e-05
38.7714,6.1806e-05
38.9214,5.75419e-05
39.0714,5.37043e-05
39.2214,5.02382e-05
39.3714,4.70971e-05
39.5214,4.42417e-05
39.6714,4.16382e-05
39.8214,3.9258e-05
39.9714,3.70762e-05
40.1214,3.50713e-05
40.2714,3.32248e-05
40.4214,3.15203e-05
40.5714,2.99437e-05
40.7214,2.84825e-05
40.8714,2.71257e-05
41.0214,2.58636e-05
41.1714,2.46876e-05
41.3214,2.359e-05
41.4714,2.2564e-05
41.6214,2.16035e-05
41.7714,2.0703e-05
41.9214,1.98577e-05
42.0714,1.90632e-05
42.2214,1.83153e-05
42.3714,1.76107e-05
42.5214,1.69459e-05
42.6714,1.63181e-05
42.8214,1.57245e-05
42.9714,1.51628e-05
43.1214,1.46306e-05
43.2714,1.41259e-05
43.4214,1.36469e-05
43.5714,1.31919e-05
43.7214,1.27592e-05
43.8714,1.23475e-05
44.0214,1.19554e-05
44.1714,1.15817e-05
44.3214,1.12253e-05
44.4714,1.0885e-05
44.6214,1.056e-05
44.7714,1.02493e-05
44.9214,9.95217e-06
45.0714,9.66774e-06
45.2214,9.39534e-06
45.3714,9.13429e-06
45.5214,8.88397e-06
45.6714,8.6438e-06
45.8214,8.41324e-06
45.9714,8.19179e-06
46.1214,7.97896e-06
46.2714,7.77432e-06
46.4214,7.57746e-06
46.5714,7.38797e-06
46.7214,7.20551e-06
46.8714,7.02973e-06
47.0214,6.86029e-06
47.1714,6.69692e-06
47.3214,6.53931e-06
47.4714,6.38719e-06
47.6214,6.24033e-06
47.7714,6.09847e-06
47.9214,5.9614e-06
48.0714,5.82889e-06
48.2214,5.70076e-06
48.3714,5.5768e-06
48.5214,5.45684e-06
48.6714,5.34072e-06
48.8214,5.22826e-06
48.9714,5.11931e-06
49.1214,5.01374e-06
49.2714,4.91139e-06
49.4214,4.81215e-06
49.5714,4.71589e-06
49.7214,4.62249e-06
49.8714,4.53183e-06
50.0214,4.44382e-06
50.1714,4.35835e-06
50.3214,4.27531e-06
50.4714,4.19463e-06
50.6214,4.11621e-06
50.7714,4.03997e-06
50.9214,3.96583e-06
51.0714,3.89371e-06
51.2214,3.82354e-06
51.3714,3.75525e-06
51.5214,3.68877e-06
51.6714,3.62405e-06
51.8214,3.56101e-06
51.9714,3.4996e-06
52.1214,3.43977e-06
52.2714,3.38146e-06
52.4214,3.32462e-06
52.5714,3.2692e-06
52.7214,3.21515e-06
52.8714,3.16243e-06
53.0214,3.111e-06
53.1714,3.06082e-06
53.3214,3.01184e-06
53.4714,2.96402e-06
53.6214,2.91734e-06
53.7714,2.87174e-06
53.9214,2.82721e-06
54.0714,2.78371e-06
54.2214,2.74121e-06
54.3714,2.69967e-06
54.5214,2.65906e-06
54.6714,2.61937e-06
54.8214,2.58056e-06
54.9714,2.5426e-06
55.1214,2.50548e-06
55.2714,2.46916e-06
55.4214,2.43363e-06
55.5714,2.39886e-06
55.7214,2.36483e-06
55.8714,2.33151e-06
56.0214,2.2989e-06
56.1714,2.26697e-06
56.3214,2.23569e-06
56.4714,2.20506e-06
56.6214,2.17506e-06
56.7714,2.14566e-06
56.9214,2.11685e-06
57.0714,2.08863e-06
57.2214,2.06096e-06
57.3714,2.03384e-06
57.5214,2.00725e-06
57.6714,1.98118e-06
57.8214,1.95561e-06
57.9714,1.93053e-06
58.1214,1.90594e-06
58.2714,1.88181e-06
58.4214,1.85813e-06
58.5714,1.8349e-06
58.7214,1.81211e-06
58.8714,1.78973e-06
59.0214,1.76777e-06
59.1714,1.74621e-06
59.3214,1.72504e-06
59.4714,1.70425e-06
59.6214,1.68384e-06
59.7714,1.66379e-06
59.9214,1.6441e-06
60.0714,1.62475e-06
60.2214,1.60575e-06
60.3714,1.58708e-06
60.5214,1.56873e-06
60.6714,1.55069e-06
60.8214,1.53297e-06
60.9714,1.51555e-06
61.1214,1.49842e-06
61.2714,1.48158e-06
61.4214,1.46502e-06
61.5714,1.44874e-06
61.7214,1.43273e-06
61.8714,1.41699e-06
62.0214,1.4015e-06
62.1714,1.38626e-06
62.3214,1.37128e-06
62.4714,1.35653e-06
62.6214,1.34202e-06
62.7714,1.32774e-06
62.9214,1.31369e-06
63.0714,1.29986e-06
63.2214,1.28625e-06
63.3714,1.27285e-06
63.5214,1.25965e-06
63.6714,1.24667e-06
63.8214,1.23388e-06
63.9714,1.22129e-06
64.1214,1.20889e-06
64.2714,1.19667e-06
64.4214,1.18465e-06
64.5714,1.1728e-06
64.7214,1.16113e-06
64.8714,1.14963e-06
65.0214,1.1383e-06
65.1714,1.12714e-06
65.3214,1.11614e-06
65.4714,1.10531e-06
65.6214,1.09463e-06
65.7714,1.0841e-06
65.9214,1.07372e-06
66.0714,1.0635e-06
66.2214,1.05342e-06
66.3714,1.04348e-06
66.5214,1.03368e-06
66.6714,1.02402e-06
66.8214,1.01449e-06
66.9714,1.0051e-06
67.1214,9.95831e-07
67.2714,9.86694e-07
67.4214,9.77682e-07
67.5714,9.68793e-07
67.7214,9.60025e-07
67.8714,9.51375e-07
68.0214,9.42842e-07
68.1714,9.34423e-07
68.3214,9.26116e-07
68.4714,9.17919e-07
68.6214,9.09831e-07
68.7714,9.01849e-07
68.9214,8.93972e-07
69.0714,8.86198e-07
69.2214,8.78524e-07
69.3714,8.7095e-07
69.5214,8.63474e-07
69.6714,8.56093e-07
69.8214,8.48806e-07
69.9714,8.41612e-07
70.1214,8.34509e-07
70.2714,8.27496e-07
70.4214,8.20571e-07
70.5714,8.13732e-07
70.7214,8.06978e-07
70.8714,8.00308e-07
71.0214,7.93721e-07
71.1714,7.87214e-07
71.3214,7.80788e-07
71.4714,7.74439e-07
71.6214,7.68168e-07
71.7714,7.61972e-07
71.9214,7.55852e-07
72.0714,7.49804e-07
72.2214,7.43829e-07
72.3714,7.37925e-07
72.5214,7.32091e-07
72.6714,7.26326e-07
72.8214,7.20629e-07
72.9714,7.14999e-07
73.1214,7.09434e-07
73.2714,7.03934e-07
73.4214,6.98498e-07
73.5714,6.93124e-07
73.7214,6.87813e-07
73.8714,6.82562e-07
74.0214,6.77371e-07
74.1714,6.72239e-07
74.3214,6.67165e-07
74.3714,6.65486e-07

File: xrd.csv
33.1653, 0.460938
33.3714, 0.461307
33.5923, 0.460957
33.8131, 0.460967
34.0192, 0.461336
34.1812, 0.461882
34.2695, 0.466021
34.402, 0.481967
34.402, 0.476574
34.402, 0.47178
34.4167, 0.489039
34.4756, 0.54549
34.4756, 0.540097
34.4756, 0.534704
34.4756, 0.52931
34.4756, 0.523917
34.4756, 0.518524
34.4756, 0.513131
34.4756, 0.507738
34.4756, 0.502344
34.4756, 0.497251
34.5124, 0.567064
34.5124, 0.561671
34.5124, 0.556278
34.5124, 0.550885
34.5492, 0.631785
34.5492, 0.626391
34.5492, 0.620998
34.5492, 0.615605
34.5492, 0.610212
34.5492, 0.604819
34.5492, 0.599425
34.5492, 0.594032
34.5492, 0.588639
34.5492, 0.583246
34.5492, 0.577853
34.5676, 0.571561
34.6228, 0.761225
34.6228, 0.755832
34.6228, 0.750438
34.6228, 0.745045
34.6228, 0.739652
34.6228, 0.734259
34.6228, 0.728866
34.6228, 0.723472
34.6228, 0.718079
34.6228, 0.712686
34.6228, 0.707293
34.6228, 0.7019
34.6228, 0.696506
34.6228, 0.691113
34.6228, 0.68572
34.6228, 0.680327
34.6228, 0.674933
34.6228, 0.66954
34.6228, 0.664147
34.6228, 0.658754
34.6228, 0.653361
34.6228, 0.647967
34.6228, 0.642574
34.6228, 0.637181
34.6596, 0.825945
34.6596, 0.820552
34.6596, 0.815158
34.6964, 0.809767
34.6964, 0.804374
34.6964, 0.79898
34.6964, 0.793587
34.6964, 0.788194
34.6964, 0.782801
34.6964, 0.777408
34.6964, 0.772014
34.6964, 0.766621
34.7332, 0.631793
34.7332, 0.6264
34.7332, 0.621006
34.7332, 0.615613
34.7517, 0.544603
34.7701, 0.610222
34.7701, 0.604828
34.7701, 0.599435
34.7701, 0.594042
34.7701, 0.588649
34.7701, 0.583256
34.7701, 0.577862
34.7701, 0.572469
34.7701, 0.567076
34.7701, 0.561683
34.7701, 0.55629
34.7701, 0.550896
34.7701, 0.761231
34.7701, 0.755838
34.7701, 0.750445
34.7701, 0.745052
34.7701, 0.739658
34.7701, 0.734265
34.7701, 0.728872
34.7701, 0.723479
34.7701, 0.718086
34.7701, 0.712692
34.7701, 0.707299
34.7701, 0.701906
34.7701, 0.696513
34.7701, 0.69112
34.7701, 0.685726
34.7701, 0.680333
34.7701, 0.67494
34.7701, 0.669547
34.7701, 0.664154
34.7701, 0.65876
34.7701, 0.653367
34.7701, 0.647974
34.7701, 0.642581
34.7701, 0.637188
34.8069, 0.540112
34.8069, 0.534718
34.8069, 0.529325
34.8069, 0.523932
34.8069, 0.518539
34.8069, 0.513146
34.8069, 0.507752
34.8069, 0.502359
34.8069, 0.496966
34.8069, 0.491573
34.8069, 0.48618
34.8437, 0.480788
34.8437, 0.475694
34.9173, 0.470005
35.0093, 0.464616
35.1933, 0.462826
35.4326, 0.461039
35.6681, 0.461409
35.8742, 0.461059
36.0804, 0.461427
71.5761, 0.462647
71.797, 0.462657
72.0178, 0.462667
72.2387, 0.462676
72.4448, 0.461247
72.6803, 0.463595
72.9012, 0.469447
72.9012, 0.463904
73.122, 0.468109
73.122, 0.463614
73.306, 0.461376
73.3428, 0.464523
73.5637, 0.462735
73.7845, 0.462745
74.0053, 0.462755
74.2262, 0.462465
74.4102, 0.462773