Folder: gan/wang_2023/xrd

Note: wang_2023/xrd/summary.md
## Raman

#### Curve 1 (002)
**Type**: Gaussian\
**amplitude:** 1.0\
**center** 34.7\
**σ** 0.1


#### Curve 2 (004)
**Type**:Gaussian\
**amplitude** 0.1\
**center** 72.9\
**σ** 0.1\


## S<sup>2</sup>
**(002) Curve Integrated Area:** 0.262397\
**(004) Curve Integrated Area:** 0.021059\
**S<sup>2</sup>:** 0.6453





















## Reference
XRD analyzed from:
DOI:10.1016/j.vacuum.2022.111600

Note: README.md
## Data Repository for Disorder and Its Impact on Mobility of Undoped GaN
[![DOI](https://zenodo.org/badge/664896126.svg)](https://zenodo.org/badge/latestdoi/664896126)

File: curve_1_fit.dat
32.2501,1.15817e-119
32.4001,1.52089e-105
32.5501,2.56272e-92
32.7001,5.54099e-80
32.8501,1.53728e-68
33.0001,5.47268e-58
33.1501,2.49993e-48
33.3001,1.46533e-39
33.4501,1.10211e-31
33.6001,1.06364e-24
33.7501,1.31718e-18
33.9001,2.09304e-13
34.0501,4.26767e-09
34.2001,1.11656e-05
34.3501,0.0037485
34.5001,0.161478
34.6501,0.892581
34.8001,0.633088
34.9501,0.0576184
35.1001,0.000672882
35.2501,1.00832e-06
35.4001,1.93882e-10
35.5501,4.78362e-15
35.7001,1.51446e-20
35.8501,6.15233e-27
36.0001,3.20702e-34
36.1501,2.14509e-42
36.3001,1.84107e-51
36.4501,2.02756e-61
36.6001,2.86523e-72
36.7501,5.19549e-84
36.9001,1.20885e-96
37.0501,3.60912e-110
37.2001,1.38264e-124
37.3501,6.79673e-140
37.5001,4.28716e-156
37.6501,3.46993e-173
37.8001,3.60374e-191
37.9501,4.80248e-210
38.1001,8.21219e-230
38.2501,1.80191e-250
38.4001,5.07327e-272
38.5501,1.83284e-294
38.7001,8.49651e-318
38.8501,0.0
39.0001,0.0
39.1501,0.0
39.3001,0.0
39.4501,0.0
39.6001,0.0
39.7501,0.0
39.9001,0.0
40.0501,0.0
40.2001,0.0
40.3501,0.0
40.5001,0.0
40.6501,0.0
40.8001,0.0
40.9501,0.0
41.1001,0.0
41.2501,0.0
41.4001,0.0
41.5501,0.0
41.7001,0.0
41.8501,0.0
42.0001,0.0
42.1501,0.0
42.3001,0.0
42.4501,0.0
42.6001,0.0
42.7501,0.0
42.9001,0.0
43.0501,0.0
43.2001,0.0
43.3501,0.0
43.5001,0.0
43.6501,0.0
43.8001,0.0
43.9501,0.0
44.1001,0.0
44.2501,0.0
44.4001,0.0
44.5501,0.0
44.7001,0.0
44.8501,0.0
45.0001,0.0
45.1501,0.0
45.3001,0.0
45.4501,0.0
45.6001,0.0
45.7501,0.0
45.9001,0.0
46.0501,0.0
46.2001,0.0
46.3501,0.0
46.5001,0.0
46.6501,0.0
46.8001,0.0
46.9501,0.0
47.1001,0.0
47.2501,0.0
47.4001,0.0
47.5501,0.0
47.7001,0.0
47.8501,0.0
48.0001,0.0
48.1501,0.0
48.3001,0.0
48.4501,0.0
48.6001,0.0
48.7501,0.0
48.9001,0.0
49.0501,0.0
49.2001,0.0
49.3501,0.0
49.5001,0.0
49.6501,0.0
49.8001,0.0
49.9501,0.0
50.1001,0.0
50.2501,0.0
50.4001,0.0
50.5501,0.0
50.7001,0.0
50.8501,0.0
51.0001,0.0
51.1501,0.0
51.3001,0.0
51.4501,0.0
51.6001,0.0
51.7501,0.0
51.9001,0.0
52.0501,0.0
52.2001,0.0
52.3501,0.0
52.5001,0.0
52.6501,0.0
52.8001,0.0
52.9501,0.0
53.1001,0.0
53.2501,0.0
53.4001,0.0
53.5501,0.0
53.7001,0.0
53.8501,0.0
54.0001,0.0
54.1501,0.0
54.3001,0.0
54.4501,0.0
54.6001,0.0
54.7501,0.0
54.9001,0.0
55.0501,0.0
55.2001,0.0
55.3501,0.0
55.5001,0.0
55.6501,0.0
55.8001,0.0
55.9501,0.0
56.1001,0.0
56.2501,0.0
56.4001,0.0
56.5501,0.0
56.7001,0.0
56.8501,0.0
57.0001,0.0
57.1501,0.0
57.3001,0.0
57.4501,0.0
57.6001,0.0
57.7501,0.0
57.9001,0.0
58.0501,0.0
58.2001,0.0
58.3501,0.0
58.5001,0.0
58.6501,0.0
58.8001,0.0
58.9501,0.0
59.1001,0.0
59.2501,0.0
59.4001,0.0
59.5501,0.0
59.7001,0.0
59.8501,0.0
60.0001,0.0
60.1501,0.0
60.3001,0.0
60.4501,0.0
60.6001,0.0
60.7501,0.0
60.9001,0.0
61.0501,0.0
61.2001,0.0
61.3501,0.0
61.5001,0.0
61.6501,0.0
61.8001,0.0
61.9501,0.0
62.1001,0.0
62.2501,0.0
62.4001,0.0
62.5501,0.0
62.7001,0.0
62.8501,0.0
63.0001,0.0
63.1501,0.0
63.3001,0.0
63.4501,0.0
63.6001,0.0
63.7501,0.0
63.9001,0.0
64.0501,0.0
64.2001,0.0
64.3501,0.0
64.5001,0.0
64.6501,0.0
64.8001,0.0
64.9501,0.0
65.1001,0.0
65.2501,0.0
65.4001,0.0
65.5501,0.0
65.7001,0.0
65.8501,0.0
66.0001,0.0
66.1501,0.0
66.3001,0.0
66.4501,0.0
66.6001,0.0
66.7501,0.0
66.9001,0.0
67.0501,0.0
67.2001,0.0
67.3501,0.0
67.5001,0.0
67.6501,0.0
67.8001,0.0
67.9501,0.0
68.1001,0.0
68.2501,0.0
68.4001,0.0
68.5501,0.0
68.7001,0.0
68.8501,0.0
69.0001,0.0
69.1501,0.0
69.3001,0.0
69.4501,0.0
69.6001,0.0
69.7501,0.0
69.9001,0.0
70.0501,0.0
70.2001,0.0
70.3501,0.0
70.5001,0.0
70.6501,0.0
70.8001,0.0
70.9501,0.0
71.1001,0.0
71.2501,0.0
71.4001,0.0
71.5501,0.0
71.7001,0.0
71.8501,0.0
72.0001,0.0
72.1501,0.0
72.3001,0.0
72.4501,0.0
72.6001,0.0
72.7501,0.0
72.9001,0.0
73.0501,0.0
73.2001,0.0
73.3501,0.0
73.5001,0.0
73.6501,0.0
73.8001,0.0
73.9501,0.0
74.1001,0.0
74.2501,0.0
74.4001,0.0
74.5501,0.0
74.7001,0.0
74.8501,0.0
75.0001,0.0
75.1501,0.0
75.3001,0.0
75.4401,0.0

File: curve_2_fit.dat
32.2501,0.0
32.4001,0.0
32.5501,0.0
32.7001,0.0
32.8501,0.0
33.0001,0.0
33.1501,0.0
33.3001,0.0
33.4501,0.0
33.6001,0.0
33.7501,0.0
33.9001,0.0
34.0501,0.0
34.2001,0.0
34.3501,0.0
34.5001,0.0
34.6501,0.0
34.8001,0.0
34.9501,0.0
35.1001,0.0
35.2501,0.0
35.4001,0.0
35.5501,0.0
35.7001,0.0
35.8501,0.0
36.0001,0.0
36.1501,0.0
36.3001,0.0
36.4501,0.0
36.6001,0.0
36.7501,0.0
36.9001,0.0
37.0501,0.0
37.2001,0.0
37.3501,0.0
37.5001,0.0
37.6501,0.0
37.8001,0.0
37.9501,0.0
38.1001,0.0
38.2501,0.0
38.4001,0.0
38.5501,0.0
38.7001,0.0
38.8501,0.0
39.0001,0.0
39.1501,0.0
39.3001,0.0
39.4501,0.0
39.6001,0.0
39.7501,0.0
39.9001,0.0
40.0501,0.0
40.2001,0.0
40.3501,0.0
40.5001,0.0
40.6501,0.0
40.8001,0.0
40.9501,0.0
41.1001,0.0
41.2501,0.0
41.4001,0.0
41.5501,0.0
41.7001,0.0
41.8501,0.0
42.0001,0.0
42.1501,0.0
42.3001,0.0
42.4501,0.0
42.6001,0.0
42.7501,0.0
42.9001,0.0
43.0501,0.0
43.2001,0.0
43.3501,0.0
43.5001,0.0
43.6501,0.0
43.8001,0.0
43.9501,0.0
44.1001,0.0
44.2501,0.0
44.4001,0.0
44.5501,0.0
44.7001,0.0
44.8501,0.0
45.0001,0.0
45.1501,0.0
45.3001,0.0
45.4501,0.0
45.6001,0.0
45.7501,0.0
45.9001,0.0
46.0501,0.0
46.2001,0.0
46.3501,0.0
46.5001,0.0
46.6501,0.0
46.8001,0.0
46.9501,0.0
47.1001,0.0
47.2501,0.0
47.4001,0.0
47.5501,0.0
47.7001,0.0
47.8501,0.0
48.0001,0.0
48.1501,0.0
48.3001,0.0
48.4501,0.0
48.6001,0.0
48.7501,0.0
48.9001,0.0
49.0501,0.0
49.2001,0.0
49.3501,0.0
49.5001,0.0
49.6501,0.0
49.8001,0.0
49.9501,0.0
50.1001,0.0
50.2501,0.0
50.4001,0.0
50.5501,0.0
50.7001,0.0
50.8501,0.0
51.0001,0.0
51.1501,0.0
51.3001,0.0
51.4501,0.0
51.6001,0.0
51.7501,0.0
51.9001,0.0
52.0501,0.0
52.2001,0.0
52.3501,0.0
52.5001,0.0
52.6501,0.0
52.8001,0.0
52.9501,0.0
53.1001,0.0
53.2501,0.0
53.4001,0.0
53.5501,0.0
53.7001,0.0
53.8501,0.0
54.0001,0.0
54.1501,0.0
54.3001,0.0
54.4501,0.0
54.6001,0.0
54.7501,0.0
54.9001,0.0
55.0501,0.0
55.2001,0.0
55.3501,0.0
55.5001,0.0
55.6501,0.0
55.8001,0.0
55.9501,0.0
56.1001,0.0
56.2501,0.0
56.4001,0.0
56.5501,0.0
56.7001,0.0
56.8501,0.0
57.0001,0.0
57.1501,0.0
57.3001,0.0
57.4501,0.0
57.6001,0.0
57.7501,0.0
57.9001,0.0
58.0501,0.0
58.2001,0.0
58.3501,0.0
58.5001,0.0
58.6501,0.0
58.8001,0.0
58.9501,0.0
59.1001,0.0
59.2501,0.0
59.4001,0.0
59.5501,0.0
59.7001,0.0
59.8501,0.0
60.0001,0.0
60.1501,0.0
60.3001,0.0
60.4501,0.0
60.6001,0.0
60.7501,0.0
60.9001,0.0
61.0501,0.0
61.2001,0.0
61.3501,0.0
61.5001,0.0
61.6501,0.0
61.8001,0.0
61.9501,0.0
62.1001,0.0
62.2501,0.0
62.4001,0.0
62.5501,0.0
62.7001,0.0
62.8501,0.0
63.0001,0.0
63.1501,0.0
63.3001,0.0
63.4501,0.0
63.6001,0.0
63.7501,0.0
63.9001,0.0
64.0501,0.0
64.2001,0.0
64.3501,0.0
64.5001,0.0
64.6501,0.0
64.8001,0.0
64.9501,0.0
65.1001,0.0
65.2501,0.0
65.4001,0.0
65.5501,0.0
65.7001,0.0
65.8501,0.0
66.0001,0.0
66.1501,0.0
66.3001,0.0
66.4501,0.0
66.6001,0.0
66.7501,0.0
66.9001,0.0
67.0501,0.0
67.2001,0.0
67.3501,0.0
67.5001,0.0
67.6501,0.0
67.8001,0.0
67.9501,0.0
68.1001,0.0
68.2501,0.0
68.4001,0.0
68.5501,0.0
68.7001,0.0
68.8501,2.376e-321
69.0001,5.35255e-298
69.1501,1.56773e-275
69.3001,5.96928e-254
69.4501,2.95471e-233
69.6001,1.90129e-213
69.7501,1.59046e-194
69.9001,1.72957e-176
70.0501,2.44509e-159
70.2001,4.49358e-143
70.3501,1.07357e-127
70.5001,3.33435e-113
70.6501,1.34627e-99
70.8001,7.06634e-87
70.9501,4.82167e-75
71.1001,4.27702e-64
71.2501,4.93204e-54
71.4001,7.39355e-45
71.5501,1.44086e-36
71.7001,3.6503e-29
71.8501,1.2022e-22
72.0001,5.14717e-17
72.1501,2.86484e-12
72.3001,2.07287e-08
72.4501,1.94979e-05
72.6001,0.00238419
72.7501,0.0378999
72.9001,0.0783203
73.0501,0.0210403
73.2001,0.000734804
73.3501,3.33604e-06
73.5001,1.96894e-09
73.6501,1.51069e-13
73.8001,1.50681e-18
73.9501,1.95381e-24
74.1001,3.29343e-31
74.2501,7.21698e-39
74.4001,2.0559e-47
74.5501,7.61363e-57
74.7001,3.6654e-67
74.8501,2.29399e-78
75.0001,1.8664e-90
75.1501,1.97405e-103
75.3001,2.71426e-117
75.4401,4.97321e-131

File: curve_total_fit.dat
32.2501,3.74712e-34
32.4001,3.74712e-34
32.5501,3.74712e-34
32.7001,3.74712e-34
32.8501,3.74712e-34
33.0001,3.74712e-34
33.1501,3.74712e-34
33.3001,3.74713e-34
33.4501,1.10586e-31
33.6001,1.06364e-24
33.7501,1.31718e-18
33.9001,2.09304e-13
34.0501,4.26767e-09
34.2001,1.11656e-05
34.3501,0.0037485
34.5001,0.161478
34.6501,0.892581
34.8001,0.633088
34.9501,0.0576184
35.1001,0.000672882
35.2501,1.00832e-06
35.4001,1.93882e-10
35.5501,4.78362e-15
35.7001,1.51446e-20
35.8501,6.15233e-27
36.0001,6.95414e-34
36.1501,3.74712e-34
36.3001,3.74712e-34
36.4501,3.74712e-34
36.6001,3.74712e-34
36.7501,3.74712e-34
36.9001,3.74712e-34
37.0501,3.74712e-34
37.2001,3.74712e-34
37.3501,3.74712e-34
37.5001,3.74712e-34
37.6501,3.74712e-34
37.8001,3.74712e-34
37.9501,3.74712e-34
38.1001,3.74712e-34
38.2501,3.74712e-34
38.4001,3.74712e-34
38.5501,3.74712e-34
38.7001,3.74712e-34
38.8501,3.74712e-34
39.0001,3.74712e-34
39.1501,3.74712e-34
39.3001,3.74712e-34
39.4501,3.74712e-34
39.6001,3.74712e-34
39.7501,3.74712e-34
39.9001,3.74712e-34
40.0501,3.74712e-34
40.2001,3.74712e-34
40.3501,3.74712e-34
40.5001,3.74712e-34
40.6501,3.74712e-34
40.8001,3.74712e-34
40.9501,3.74712e-34
41.1001,3.74712e-34
41.2501,3.74712e-34
41.4001,3.74712e-34
41.5501,3.74712e-34
41.7001,3.74712e-34
41.8501,3.74712e-34
42.0001,3.74712e-34
42.1501,3.74712e-34
42.3001,3.74712e-34
42.4501,3.74712e-34
42.6001,3.74712e-34
42.7501,3.74712e-34
42.9001,3.74712e-34
43.0501,3.74712e-34
43.2001,3.74712e-34
43.3501,3.74712e-34
43.5001,3.74712e-34
43.6501,3.74712e-34
43.8001,3.74712e-34
43.9501,3.74712e-34
44.1001,3.74712e-34
44.2501,3.74712e-34
44.4001,3.74712e-34
44.5501,3.74712e-34
44.7001,3.74712e-34
44.8501,3.74712e-34
45.0001,3.74712e-34
45.1501,3.74712e-34
45.3001,3.74712e-34
45.4501,3.74712e-34
45.6001,3.74712e-34
45.7501,3.74712e-34
45.9001,3.74712e-34
46.0501,3.74712e-34
46.2001,3.74712e-34
46.3501,3.74712e-34
46.5001,3.74712e-34
46.6501,3.74712e-34
46.8001,3.74712e-34
46.9501,3.74712e-34
47.1001,3.74712e-34
47.2501,3.74712e-34
47.4001,3.74712e-34
47.5501,3.74712e-34
47.7001,3.74712e-34
47.8501,3.74712e-34
48.0001,3.74712e-34
48.1501,3.74712e-34
48.3001,3.74712e-34
48.4501,3.74712e-34
48.6001,3.74712e-34
48.7501,3.74712e-34
48.9001,3.74712e-34
49.0501,3.74712e-34
49.2001,3.74712e-34
49.3501,3.74712e-34
49.5001,3.74712e-34
49.6501,3.74712e-34
49.8001,3.74712e-34
49.9501,3.74712e-34
50.1001,3.74712e-34
50.2501,3.74712e-34
50.4001,3.74712e-34
50.5501,3.74712e-34
50.7001,3.74712e-34
50.8501,3.74712e-34
51.0001,3.74712e-34
51.1501,3.74712e-34
51.3001,3.74712e-34
51.4501,3.74712e-34
51.6001,3.74712e-34
51.7501,3.74712e-34
51.9001,3.74712e-34
52.0501,3.74712e-34
52.2001,3.74712e-34
52.3501,3.74712e-34
52.5001,3.74712e-34
52.6501,3.74712e-34
52.8001,3.74712e-34
52.9501,3.74712e-34
53.1001,3.74712e-34
53.2501,3.74712e-34
53.4001,3.74712e-34
53.5501,3.74712e-34
53.7001,3.74712e-34
53.8501,3.74712e-34
54.0001,3.74712e-34
54.1501,3.74712e-34
54.3001,3.74712e-34
54.4501,3.74712e-34
54.6001,3.74712e-34
54.7501,3.74712e-34
54.9001,3.74712e-34
55.0501,3.74712e-34
55.2001,3.74712e-34
55.3501,3.74712e-34
55.5001,3.74712e-34
55.6501,3.74712e-34
55.8001,3.74712e-34
55.9501,3.74712e-34
56.1001,3.74712e-34
56.2501,3.74712e-34
56.4001,3.74712e-34
56.5501,3.74712e-34
56.7001,3.74712e-34
56.8501,3.74712e-34
57.0001,3.74712e-34
57.1501,3.74712e-34
57.3001,3.74712e-34
57.4501,3.74712e-34
57.6001,3.74712e-34
57.7501,3.74712e-34
57.9001,3.74712e-34
58.0501,3.74712e-34
58.2001,3.74712e-34
58.3501,3.74712e-34
58.5001,3.74712e-34
58.6501,3.74712e-34
58.8001,3.74712e-34
58.9501,3.74712e-34
59.1001,3.74712e-34
59.2501,3.74712e-34
59.4001,3.74712e-34
59.5501,3.74712e-34
59.7001,3.74712e-34
59.8501,3.74712e-34
60.0001,3.74712e-34
60.1501,3.74712e-34
60.3001,3.74712e-34
60.4501,3.74712e-34
60.6001,3.74712e-34
60.7501,3.74712e-34
60.9001,3.74712e-34
61.0501,3.74712e-34
61.2001,3.74712e-34
61.3501,3.74712e-34
61.5001,3.74712e-34
61.6501,3.74712e-34
61.8001,3.74712e-34
61.9501,3.74712e-34
62.1001,3.74712e-34
62.2501,3.74712e-34
62.4001,3.74712e-34
62.5501,3.74712e-34
62.7001,3.74712e-34
62.8501,3.74712e-34
63.0001,3.74712e-34
63.1501,3.74712e-34
63.3001,3.74712e-34
63.4501,3.74712e-34
63.6001,3.74712e-34
63.7501,3.74712e-34
63.9001,3.74712e-34
64.0501,3.74712e-34
64.2001,3.74712e-34
64.3501,3.74712e-34
64.5001,3.74712e-34
64.6501,3.74712e-34
64.8001,3.74712e-34
64.9501,3.74712e-34
65.1001,3.74712e-34
65.2501,3.74712e-34
65.4001,3.74712e-34
65.5501,3.74712e-34
65.7001,3.74712e-34
65.8501,3.74712e-34
66.0001,3.74712e-34
66.1501,3.74712e-34
66.3001,3.74712e-34
66.4501,3.74712e-34
66.6001,3.74712e-34
66.7501,3.74712e-34
66.9001,3.74712e-34
67.0501,3.74712e-34
67.2001,3.74712e-34
67.3501,3.74712e-34
67.5001,3.74712e-34
67.6501,3.74712e-34
67.8001,3.74712e-34
67.9501,3.74712e-34
68.1001,3.74712e-34
68.2501,3.74712e-34
68.4001,3.74712e-34
68.5501,3.74712e-34
68.7001,3.74712e-34
68.8501,3.74712e-34
69.0001,3.74712e-34
69.1501,3.74712e-34
69.3001,3.74712e-34
69.4501,3.74712e-34
69.6001,3.74712e-34
69.7501,3.74712e-34
69.9001,3.74712e-34
70.0501,3.74712e-34
70.2001,3.74712e-34
70.3501,3.74712e-34
70.5001,3.74712e-34
70.6501,3.74712e-34
70.8001,3.74712e-34
70.9501,3.74712e-34
71.1001,3.74712e-34
71.2501,3.74712e-34
71.4001,3.74712e-34
71.5501,3.76152e-34
71.7001,3.65034e-29
71.8501,1.2022e-22
72.0001,5.14717e-17
72.1501,2.86484e-12
72.3001,2.07287e-08
72.4501,1.94979e-05
72.6001,0.00238419
72.7501,0.0378999
72.9001,0.0783203
73.0501,0.0210403
73.2001,0.000734804
73.3501,3.33604e-06
73.5001,1.96894e-09
73.6501,1.51069e-13
73.8001,1.50681e-18
73.9501,1.95381e-24
74.1001,3.29718e-31
74.2501,3.74719e-34
74.4001,3.74712e-34
74.5501,3.74712e-34
74.7001,3.74712e-34
74.8501,3.74712e-34
75.0001,3.74712e-34
75.1501,3.74712e-34
75.3001,3.74712e-34
75.4401,3.74712e-34

File: xrd.csv
32.0618, -0.000748829
32.4384, -0.000748829
32.8151, -0.000748829
33.1918, -0.000748829
33.5685, -0.000748829
33.9451, -0.000748829
34.259, -0.000748829
34.3863, 0.0164889
34.3892, 0.0462014
34.4482, 0.00741642
34.4537, 0.0645732
34.4553, 0.0809037
34.4569, 0.0972342
34.4585, 0.113565
34.4601, 0.129895
34.4617, 0.146226
34.4633, 0.162556
34.4648, 0.178887
34.4664, 0.195217
34.468, 0.211548
34.4696, 0.227878
34.4712, 0.244209
34.4728, 0.260539
34.4744, 0.27687
34.476, 0.2932
34.4776, 0.309531
34.4791, 0.325861
34.4807, 0.342192
34.4823, 0.358522
34.4839, 0.374853
34.4855, 0.391183
34.4871, 0.407514
34.4887, 0.423844
34.4903, 0.440175
34.4919, 0.456505
34.4935, 0.472836
34.495, 0.489166
34.4966, 0.505497
34.4982, 0.521827
34.4998, 0.538158
34.5142, 0.55721
34.5659, 0.572633
34.5675, 0.588964
34.5691, 0.605294
34.5707, 0.621625
34.5723, 0.637955
34.5739, 0.654286
34.5755, 0.670616
34.5771, 0.686947
34.5787, 0.703277
34.5802, 0.719608
34.5818, 0.735938
34.5834, 0.752269
34.585, 0.768599
34.5866, 0.78493
34.5882, 0.80126
34.5898, 0.817591
34.5914, 0.833921
34.593, 0.850252
34.5946, 0.866582
34.5961, 0.882913
34.5977, 0.899243
34.5993, 0.915574
34.6009, 0.931904
34.6025, 0.948235
34.6041, 0.964565
34.6057, 0.980896
34.6201, 0.999767
34.6419, 0.0627587
34.6435, 0.0790892
34.6451, 0.0954197
34.6466, 0.11175
34.6482, 0.128081
34.6498, 0.144411
34.6515, 0.161195
34.653, 0.177072
34.6546, 0.193403
34.6562, 0.209733
34.6578, 0.226064
34.6594, 0.242394
34.661, 0.258725
34.6625, 0.275055
34.6641, 0.291386
34.6657, 0.307716
34.6673, 0.324047
34.6689, 0.340377
34.6705, 0.356708
34.6721, 0.373038
34.6737, 0.389369
34.6753, 0.405699
34.6768, 0.42203
34.6784, 0.43836
34.68, 0.454691
34.6816, 0.471021
34.6832, 0.487352
34.6848, 0.503682
34.6864, 0.520013
34.688, 0.536343
34.6923, 1.00839
34.7538, 0.56719
34.7553, 0.58352
34.7569, 0.599851
34.7585, 0.616181
34.7601, 0.632512
34.7609, 0.640677
34.7617, 0.648842
34.7625, 0.657008
34.7633, 0.665173
34.7641, 0.673338
34.7646, 1.00086
34.7657, 0.689669
34.7665, 0.697834
34.7681, 0.714164
34.7696, 0.730495
34.7712, 0.746825
34.7728, 0.763156
34.7744, 0.779486
34.776, 0.795817
34.7776, 0.812147
34.7792, 0.828478
34.7808, 0.844808
34.7824, 0.861139
34.7839, 0.877469
34.7856, 0.894707
34.7872, 0.911038
34.7888, 0.927368
34.7904, 0.943699
34.7982, 0.0564079
34.7998, 0.0727384
34.8014, 0.0890689
34.803, 0.105399
34.8046, 0.12173
34.8062, 0.13806
34.8077, 0.154391
34.8093, 0.170721
34.8109, 0.187052
34.8125, 0.203382
34.8141, 0.219713
34.8156, 0.55721
34.8165, 0.244209
34.8181, 0.260539
34.8197, 0.27687
34.8213, 0.2932
34.8228, 0.309531
34.8244, 0.00265336
34.8249, 0.00832367
34.8258, 0.017623
34.8268, 0.350357
34.8284, 0.366688
34.83, 0.383018
34.8316, 0.399349
34.8332, 0.415679
34.8348, 0.43201
34.8364, 0.44834
34.8379, 0.464671
34.8395, 0.481001
34.8411, 0.497332
34.8427, 0.513662
34.8443, 0.529993
34.8459, 0.546323
35.1379, -0.000748829
35.5146, -0.000748829
35.8913, -0.000748829
71.487, -0.000748829
71.8637, -0.000748829
72.2404, -0.000748829
72.5544, 0.000612046
72.6942, 0.0183034
72.7466, 0.0407579
72.8111, 0.0582224
72.8255, 0.0770932
72.9339, 0.0300977
72.9505, 0.039397
72.9684, 0.0618514
72.97, 0.0781819
73.0582, 0.0169426
73.0602, 0.0373557
73.3704, -0.000748829
73.7471, -0.000748829
74.1237, -0.000748829
74.5004, -0.000748829
74.8771, -0.000748829
75.2538, -0.000748829
75.4421, -0.000748829