Folder: gan/park_2000/1000_xrd

Note: README.md
## Data Repository for Disorder and Its Impact on Mobility of Undoped GaN
[![DOI](https://zenodo.org/badge/664896126.svg)](https://zenodo.org/badge/latestdoi/664896126)

File: xrd.csv
33.0402, 0.920254
33.3346, 0.921166
33.6291, 0.92028
33.9235, 0.920743
34.2106, 0.922463
34.2548, 0.927499
34.3431, 0.935413
34.402, 0.97185
34.402, 0.964659
34.402, 0.957468
34.402, 0.950277
34.402, 0.944584
34.402, 0.990426
34.4167, 0.981438
34.4756, 1.11028
34.4756, 1.10309
34.4756, 1.0959
34.4756, 1.08871
34.4756, 1.08151
34.4756, 1.07432
34.4756, 1.06713
34.4756, 1.05994
34.4756, 1.05275
34.4756, 1.04556
34.4756, 1.03837
34.4756, 1.03118
34.4756, 1.02399
34.4756, 1.0168
34.4756, 1.00961
34.4756, 1.00241
34.4756, 0.995523
34.4903, 1.11987
34.5738, 1.14504
34.5738, 1.13785
34.5738, 1.13066
34.586, 1.28167
34.586, 1.27448
34.586, 1.26729
34.586, 1.26009
34.586, 1.2529
34.586, 1.24571
34.586, 1.23852
34.586, 1.23133
34.586, 1.22414
34.586, 1.21695
34.586, 1.20976
34.586, 1.20257
34.586, 1.19538
34.586, 1.18819
34.586, 1.18099
34.586, 1.1738
34.586, 1.16661
34.586, 1.15942
34.586, 1.15223
34.6596, 1.62684
34.6596, 1.61964
34.6596, 1.61245
34.6596, 1.60526
34.6596, 1.59807
34.6596, 1.59088
34.6596, 1.58369
34.6596, 1.5765
34.6596, 1.56931
34.6596, 1.56212
34.6596, 1.55493
34.6596, 1.54774
34.6596, 1.54054
34.6596, 1.53335
34.6596, 1.52616
34.6596, 1.51897
34.6596, 1.51178
34.6596, 1.50459
34.6596, 1.4974
34.6596, 1.49021
34.6596, 1.48302
34.6596, 1.47583
34.6596, 1.46864
34.6596, 1.46144
34.6596, 1.45425
34.6596, 1.44706
34.6596, 1.43987
34.6596, 1.43268
34.6596, 1.42549
34.6596, 1.4183
34.6596, 1.41111
34.6596, 1.40392
34.6596, 1.39673
34.6596, 1.38953
34.6596, 1.38234
34.6596, 1.37515
34.6596, 1.36796
34.6596, 1.36077
34.6596, 1.35358
34.6596, 1.34639
34.6596, 1.3392
34.6596, 1.33201
34.6596, 1.32482
34.6596, 1.31763
34.6596, 1.31043
34.6596, 1.30324
34.6596, 1.29605
34.6596, 1.28886
34.6596, 1.76346
34.6596, 1.74908
34.6596, 1.74189
34.6596, 1.7347
34.6596, 1.72751
34.6964, 1.72032
34.6964, 1.71313
34.6964, 1.70594
34.6964, 1.69875
34.6964, 1.69156
34.6964, 1.68436
34.6964, 1.67717
34.6964, 1.66998
34.6964, 1.66279
34.6964, 1.6556
34.6964, 1.64841
34.6964, 1.64122
34.6964, 1.63403
34.7701, 1.11568
34.7701, 1.10849
34.7701, 1.1013
34.7701, 1.09411
34.7701, 1.08692
34.7701, 1.07973
34.7701, 1.07254
34.7701, 1.06565
34.7701, 1.28168
34.7701, 1.27448
34.7701, 1.26729
34.7701, 1.2601
34.7701, 1.25291
34.7701, 1.13067
34.7885, 1.12437
34.8069, 1.24482
34.8069, 1.23763
34.8069, 1.23044
34.8069, 1.22325
34.8069, 1.21606
34.8069, 1.20887
34.8069, 1.20168
34.8069, 1.19449
34.8069, 1.1873
34.8069, 1.18011
34.8069, 1.17291
34.8069, 1.16572
34.8069, 1.15853
34.8069, 1.15134
34.8069, 1.14415
34.8069, 1.13696
34.8069, 1.05786
34.8069, 1.05067
34.8069, 1.04348
34.8069, 1.03629
34.8069, 1.0291
34.8069, 1.0219
34.8069, 1.01471
34.8069, 1.00752
34.8069, 1.00033
34.8069, 0.993141
34.8069, 0.98595
34.8069, 0.978759
34.8069, 0.971568
34.8069, 0.964377
34.8069, 0.957186
34.8069, 0.949995
34.8253, 0.941906
34.9026, 0.932382
35.0277, 0.924162
35.3221, 0.920805
35.6166, 0.920369
35.911, 0.919932
72.1282, 0.920195
72.4227, 0.920208
72.7392, 0.9222
72.8275, 0.927866
72.8766, 0.93446
72.9159, 0.945758
73.1588, 0.93687
73.1588, 0.930128
73.3134, 0.922045
73.6005, 0.92026
73.7845, 0.920269