Folder: gan/mohanta_2013/200nm/raman

Note: mohanta_2013/200nm/raman/summary.md
## Raman

#### Curve 1 (Disordered Peak)
**Type**: Skewed Gaussian\
**amplitude:** 0.1\
**center** 546.0\
**σ** 25.0
**σ2** 14.3


#### Curve 2 (Ordered Peak)
**Type**:Skewed Loretenzian\
**amplitude** 0.4\
**center** 568.2\
**σ** 20.0\
**σ2** 19.6


## S<sup>2</sup>
**Disordered Curve Integrated Area:** 5.695917\
**Ordered Curve Integrated Area:** 12.918692\
**S<sup>2</sup>:** 0.6940






















## Reference
Data analyzed from 10.1016/j.tsf.2013.03.112

Note: README.md
## Data Repository for Disorder and Its Impact on Mobility of Undoped GaN
[![DOI](https://zenodo.org/badge/664896126.svg)](https://zenodo.org/badge/latestdoi/664896126)

File: curve_1_fit.dat
507.428,0.0351726
507.828,0.0360471
508.228,0.0369338
508.628,0.0378327
509.028,0.0387435
509.428,0.0396661
509.828,0.0406003
510.228,0.0415458
510.628,0.0425025
511.028,0.0434701
511.428,0.0444483
511.828,0.0454369
512.228,0.0464356
512.628,0.0474441
513.028,0.0484621
513.428,0.0494893
513.828,0.0505253
514.228,0.0515698
514.628,0.0526224
515.028,0.0536827
515.428,0.0547504
515.828,0.0558251
516.228,0.0569063
516.628,0.0579935
517.028,0.0590864
517.428,0.0601845
517.828,0.0612873
518.228,0.0623944
518.628,0.0635051
519.028,0.0646191
519.428,0.0657358
519.828,0.0668547
520.228,0.0679753
520.628,0.0690969
521.028,0.0702191
521.428,0.0713412
521.828,0.0724627
522.228,0.073583
522.628,0.0747015
523.028,0.0758175
523.428,0.0769306
523.828,0.07804
524.228,0.0791451
524.628,0.0802454
525.028,0.0813401
525.428,0.0824286
525.828,0.0835104
526.228,0.0845846
526.628,0.0856508
527.028,0.0867082
527.428,0.0877562
527.828,0.0887941
528.228,0.0898213
528.628,0.0908371
529.028,0.0918409
529.428,0.092832
529.828,0.0938098
530.228,0.0947737
530.628,0.0957229
531.028,0.0966569
531.428,0.097575
531.828,0.0984766
532.228,0.0993611
532.628,0.100228
533.028,0.101076
533.428,0.101906
533.828,0.102716
534.228,0.103506
534.628,0.104275
535.028,0.105024
535.428,0.10575
535.828,0.106455
536.228,0.107136
536.628,0.107794
537.028,0.108429
537.428,0.109039
537.828,0.109625
538.228,0.110186
538.628,0.110721
539.028,0.111231
539.428,0.111714
539.828,0.11217
540.228,0.1126
540.628,0.113002
541.028,0.113377
541.428,0.113723
541.828,0.114042
542.228,0.114332
542.628,0.114594
543.028,0.114827
543.428,0.115031
543.828,0.115205
544.228,0.115351
544.628,0.115467
545.028,0.115554
545.428,0.115611
545.828,0.115638
546.228,0.115626
546.628,0.115529
547.028,0.115342
547.428,0.115065
547.828,0.1147
548.228,0.114245
548.628,0.113704
549.028,0.113077
549.428,0.112365
549.828,0.11157
550.228,0.110695
550.628,0.10974
551.028,0.108708
551.428,0.107602
551.828,0.106424
552.228,0.105176
552.628,0.103862
553.028,0.102484
553.428,0.101045
553.828,0.0995488
554.228,0.0979977
554.628,0.0963953
555.028,0.0947449
555.428,0.09305
555.828,0.0913139
556.228,0.0895401
556.628,0.0877321
557.028,0.0858934
557.428,0.0840275
557.828,0.0821378
558.228,0.0802278
558.628,0.0783009
559.028,0.0763605
559.428,0.07441
559.828,0.0724525
560.228,0.0704914
560.628,0.0685298
561.028,0.0665706
561.428,0.0646168
561.828,0.0626714
562.228,0.0607369
562.628,0.0588162
563.028,0.0569116
563.428,0.0550256
563.828,0.0531606
564.228,0.0513185
564.628,0.0495016
565.028,0.0477116
565.428,0.0459504
565.828,0.0442196
566.228,0.0425207
566.628,0.0408551
567.028,0.039224
567.428,0.0376286
567.828,0.0360699
568.228,0.0345487
568.628,0.0330657
569.028,0.0316217
569.428,0.0302171
569.828,0.0288522
570.228,0.0275275
570.628,0.0262431
571.028,0.024999
571.428,0.0237953
571.828,0.0226318
572.228,0.0215084
572.628,0.0204247
573.028,0.0193805
573.428,0.0183753
573.828,0.0174086
574.228,0.0164799
574.628,0.0155885
575.028,0.0147337
575.428,0.013915
575.828,0.0131315
576.228,0.0123824
576.628,0.0116669
577.028,0.0109841
577.428,0.0103332
577.828,0.00971331
578.228,0.00912344
578.628,0.00856269
579.028,0.00803012
579.428,0.00752479
579.828,0.00704574
580.228,0.00659202
580.628,0.0061627
581.028,0.00575684
581.428,0.0053735
581.828,0.00501176
582.228,0.00467072
582.628,0.00434948
583.028,0.00404716
583.428,0.00376292
583.828,0.0034959
584.228,0.00324529
584.628,0.00301029
585.028,0.00279012
585.428,0.00258403
585.828,0.00239129
586.228,0.0022112
586.628,0.00204307
587.028,0.00188625
587.428,0.0017401
587.828,0.00160402
588.228,0.00147743
588.628,0.00135976
589.028,0.00125049
589.428,0.0011491
589.828,0.0010551
590.228,0.000968035
590.628,0.000887459
591.028,0.000812954
591.428,0.000744121
591.828,0.000680584
592.228,0.000621985
592.628,0.000567987
593.028,0.000518271
593.428,0.000472537
593.828,0.000430501
594.228,0.000391899
594.628,0.000356478
595.028,0.000324006
595.428,0.000294261
595.828,0.000267037
596.228,0.000242143
596.628,0.000219398
597.028,0.000198634
597.428,0.000179694
597.828,0.000162433
598.228,0.000146715
598.628,0.000132415
599.028,0.000119415
599.428,0.000107607
599.828,9.68906e-05
600.228,8.71734e-05
600.628,7.83693e-05
601.028,7.03993e-05
601.428,6.31904e-05
601.828,5.66753e-05
602.228,5.07922e-05
602.628,4.54842e-05
603.028,4.0699e-05
603.428,3.63887e-05
603.828,3.25095e-05
604.228,2.90212e-05
604.628,2.58868e-05
605.028,2.3073e-05
605.428,2.05489e-05
605.828,1.82866e-05
606.228,1.62606e-05
606.628,1.44478e-05
607.028,1.28271e-05
607.428,1.13792e-05
607.828,1.00869e-05
608.228,8.93439e-06
608.628,7.90735e-06
609.028,6.9929e-06
609.428,6.17937e-06
609.828,5.4562e-06
610.228,4.8139e-06
610.628,4.24389e-06
611.028,3.73845e-06
611.428,3.29063e-06
611.828,2.89419e-06
612.228,2.54352e-06
612.628,2.23359e-06

File: curve_2_fit.dat
507.428,0.0111065
507.828,0.0112501
508.228,0.0113965
508.628,0.0115458
509.028,0.011698
509.428,0.0118532
509.828,0.0120114
510.228,0.0121728
510.628,0.0123375
511.028,0.0125055
511.428,0.0126769
511.828,0.0128519
512.228,0.0130304
512.628,0.0132126
513.028,0.0133987
513.428,0.0135886
513.828,0.0137826
514.228,0.0139807
514.628,0.0141831
515.028,0.0143898
515.428,0.0146011
515.828,0.014817
516.228,0.0150376
516.628,0.0152631
517.028,0.0154937
517.428,0.0157295
517.828,0.0159706
518.228,0.0162173
518.628,0.0164696
519.028,0.0167278
519.428,0.016992
519.828,0.0172624
520.228,0.0175393
520.628,0.0178227
521.028,0.018113
521.428,0.0184103
521.828,0.0187149
522.228,0.019027
522.628,0.0193468
523.028,0.0196746
523.428,0.0200107
523.828,0.0203554
524.228,0.0207088
524.628,0.0210714
525.028,0.0214434
525.428,0.0218252
525.828,0.0222171
526.228,0.0226194
526.628,0.0230325
527.028,0.0234568
527.428,0.0238927
527.828,0.0243407
528.228,0.024801
528.628,0.0252743
529.028,0.025761
529.428,0.0262615
529.828,0.0267764
530.228,0.0273063
530.628,0.0278517
531.028,0.0284132
531.428,0.0289914
531.828,0.029587
532.228,0.0302006
532.628,0.0308331
533.028,0.031485
533.428,0.0321573
533.828,0.0328508
534.228,0.0335662
534.628,0.0343046
535.028,0.0350668
535.428,0.035854
535.828,0.0366671
536.228,0.0375072
536.628,0.0383756
537.028,0.0392734
537.428,0.040202
537.828,0.0411627
538.228,0.042157
538.628,0.0431863
539.028,0.0442523
539.428,0.0453566
539.828,0.0465011
540.228,0.0476875
540.628,0.0489179
541.028,0.0501944
541.428,0.0515191
541.828,0.0528944
542.228,0.0543227
542.628,0.0558067
543.028,0.0573491
543.428,0.0589527
543.828,0.0606208
544.228,0.0623564
544.628,0.0641632
545.028,0.0660446
545.428,0.0680047
545.828,0.0700473
546.228,0.072177
546.628,0.0743982
547.028,0.0767157
547.428,0.0791348
547.828,0.0816607
548.228,0.0842993
548.628,0.0870565
549.028,0.0899388
549.428,0.0929529
549.828,0.0961059
550.228,0.0994053
550.628,0.102859
551.028,0.106475
551.428,0.110263
551.828,0.11423
552.228,0.118388
552.628,0.122745
553.028,0.127312
553.428,0.132099
553.828,0.137118
554.228,0.142379
554.628,0.147894
555.028,0.153674
555.428,0.159731
555.828,0.166075
556.228,0.172717
556.628,0.179667
557.028,0.186935
557.428,0.194527
557.828,0.202452
558.228,0.210711
558.628,0.219309
559.028,0.228241
559.428,0.237503
559.828,0.247085
560.228,0.256971
560.628,0.267138
561.028,0.277557
561.428,0.28819
561.828,0.29899
562.228,0.309902
562.628,0.320856
563.028,0.331777
563.428,0.342574
563.828,0.35315
564.228,0.363394
564.628,0.373191
565.028,0.382417
565.428,0.390949
565.828,0.398661
566.228,0.405432
566.628,0.41115
567.028,0.415717
567.428,0.41905
567.828,0.421087
568.228,0.42179
568.628,0.421116
569.028,0.419045
569.428,0.415618
569.828,0.410902
570.228,0.404986
570.628,0.397975
571.028,0.389993
571.428,0.381167
571.828,0.371632
572.228,0.361521
572.628,0.350966
573.028,0.340089
573.428,0.329004
573.828,0.317815
574.228,0.306613
574.628,0.29548
575.028,0.284483
575.428,0.273679
575.828,0.263115
576.228,0.252827
576.628,0.242845
577.028,0.233188
577.428,0.223872
577.828,0.214904
578.228,0.206288
578.628,0.198025
579.028,0.190111
579.428,0.18254
579.828,0.175305
580.228,0.168396
580.628,0.161802
581.028,0.155514
581.428,0.149518
581.828,0.143803
582.228,0.138357
582.628,0.133167
583.028,0.128222
583.428,0.12351
583.828,0.119019
584.228,0.114738
584.628,0.110658
585.028,0.106767
585.428,0.103057
585.828,0.0995163
586.228,0.0961378
586.628,0.0929126
587.028,0.0898326
587.428,0.0868903
587.828,0.0840784
588.228,0.0813902
588.628,0.0788193
589.028,0.0763594
589.428,0.074005
589.828,0.0717504
590.228,0.0695908
590.628,0.0675211
591.028,0.0655368
591.428,0.0636337
591.828,0.0618077
592.228,0.0600549
592.628,0.0583716
593.028,0.0567546
593.428,0.0552006
593.828,0.0537065
594.228,0.0522694
594.628,0.0508867
595.028,0.0495557
595.428,0.0482741
595.828,0.0470395
596.228,0.0458498
596.628,0.0447029
597.028,0.0435969
597.428,0.04253
597.828,0.0415003
598.228,0.0405063
598.628,0.0395464
599.028,0.038619
599.428,0.0377229
599.828,0.0368566
600.228,0.0360189
600.628,0.0352086
601.028,0.0344246
601.428,0.0336657
601.828,0.0329309
602.228,0.0322193
602.628,0.0315298
603.028,0.0308617
603.428,0.0302141
603.828,0.0295862
604.228,0.0289771
604.628,0.0283863
605.028,0.0278128
605.428,0.0272563
605.828,0.0267158
606.228,0.026191
606.628,0.0256811
607.028,0.0251857
607.428,0.0247041
607.828,0.024236
608.228,0.0237808
608.628,0.0233381
609.028,0.0229073
609.428,0.0224882
609.828,0.0220803
610.228,0.0216831
610.628,0.0212964
611.028,0.0209198
611.428,0.0205529
611.828,0.0201954
612.228,0.019847
612.628,0.0195074

File: curve_total_fit.dat
507.428,0.0107247
507.828,0.0117428
508.228,0.0127759
508.628,0.0138241
509.028,0.0148871
509.428,0.0159649
509.828,0.0170573
510.228,0.0181643
510.628,0.0192856
511.028,0.0204212
511.428,0.0215708
511.828,0.0227343
512.228,0.0239116
512.628,0.0251023
513.028,0.0263064
513.428,0.0275235
513.828,0.0287535
514.228,0.0299961
514.628,0.0312511
515.028,0.0325182
515.428,0.0337971
515.828,0.0350876
516.228,0.0363894
516.628,0.0377022
517.028,0.0390257
517.428,0.0403596
517.828,0.0417035
518.228,0.0430572
518.628,0.0444203
519.028,0.0457925
519.428,0.0471734
519.828,0.0485628
520.228,0.0499601
520.628,0.0513652
521.028,0.0527777
521.428,0.0541971
521.828,0.0556232
522.228,0.0570556
522.628,0.0584939
523.028,0.0599378
523.428,0.0613869
523.828,0.0628409
524.228,0.0642995
524.628,0.0657624
525.028,0.0672291
525.428,0.0686994
525.828,0.070173
526.228,0.0716496
526.628,0.0731289
527.028,0.0746106
527.428,0.0760945
527.828,0.0775803
528.228,0.0790679
528.628,0.080557
529.028,0.0820475
529.428,0.0835391
529.828,0.0850319
530.228,0.0865256
530.628,0.0880202
531.028,0.0895157
531.428,0.091012
531.828,0.0925092
532.228,0.0940074
532.628,0.0955066
533.028,0.0970071
533.428,0.0985089
533.828,0.100012
534.228,0.101518
534.628,0.103026
535.028,0.104536
535.428,0.10605
535.828,0.107567
536.228,0.109089
536.628,0.110616
537.028,0.112148
537.428,0.113687
537.828,0.115234
538.228,0.116789
538.628,0.118353
539.028,0.119928
539.428,0.121516
539.828,0.123117
540.228,0.124733
540.628,0.126365
541.028,0.128017
541.428,0.129688
541.828,0.131382
542.228,0.133101
542.628,0.134846
543.028,0.136621
543.428,0.138429
543.828,0.140272
544.228,0.142153
544.628,0.144076
545.028,0.146044
545.428,0.148061
545.828,0.150131
546.228,0.152249
546.628,0.154373
547.028,0.156504
547.428,0.158646
547.828,0.160806
548.228,0.16299
548.628,0.165206
549.028,0.167461
549.428,0.169763
549.828,0.172122
550.228,0.174545
550.628,0.177044
551.028,0.179629
551.428,0.18231
551.828,0.1851
552.228,0.18801
552.628,0.191053
553.028,0.194242
553.428,0.19759
553.828,0.201112
554.228,0.204823
554.628,0.208735
555.028,0.212865
555.428,0.217226
555.828,0.221834
556.228,0.226703
556.628,0.231845
557.028,0.237274
557.428,0.243
557.828,0.249035
558.228,0.255385
558.628,0.262055
559.028,0.269047
559.428,0.276359
559.828,0.283983
560.228,0.291908
560.628,0.300113
561.028,0.308573
561.428,0.317252
561.828,0.326107
562.228,0.335084
562.628,0.344118
563.028,0.353134
563.428,0.362046
563.828,0.370756
564.228,0.379158
564.628,0.387138
565.028,0.394575
565.428,0.401345
565.828,0.407326
566.228,0.412398
566.628,0.416451
567.028,0.419387
567.428,0.421124
567.828,0.421603
568.228,0.420785
568.628,0.418627
569.028,0.415112
569.428,0.410281
569.828,0.4042
570.228,0.396959
570.628,0.388664
571.028,0.379437
571.428,0.369408
571.828,0.358709
572.228,0.347475
572.628,0.335836
573.028,0.323915
573.428,0.311825
573.828,0.299669
574.228,0.287539
574.628,0.275514
575.028,0.263662
575.428,0.252039
575.828,0.240692
576.228,0.229655
576.628,0.218957
577.028,0.208618
577.428,0.19865
577.828,0.189062
578.228,0.179857
578.628,0.171033
579.028,0.162586
579.428,0.15451
579.828,0.146796
580.228,0.139433
580.628,0.132411
581.028,0.125716
581.428,0.119337
581.828,0.11326
582.228,0.107473
582.628,0.101962
583.028,0.0967146
583.428,0.091718
583.828,0.0869603
584.228,0.0824294
584.628,0.078114
585.028,0.0740031
585.428,0.0700862
585.828,0.0663532
586.228,0.0627946
586.628,0.0594012
587.028,0.0561644
587.428,0.053076
587.828,0.0501281
588.228,0.0473133
588.628,0.0446246
589.028,0.0420555
589.428,0.0395996
589.828,0.0372511
590.228,0.0350044
590.628,0.0328541
591.028,0.0307954
591.428,0.0288234
591.828,0.0269339
592.228,0.0251224
592.628,0.0233852
593.028,0.0217185
593.428,0.0201187
593.828,0.0185826
594.228,0.0171069
594.628,0.0156887
595.028,0.0143253
595.428,0.0130139
595.828,0.0117521
596.228,0.0105375
596.628,0.00936792
597.028,0.00824115
597.428,0.00715525
597.828,0.00610833
598.228,0.0050986
598.628,0.00412437
599.028,0.00318404
599.428,0.00227609
599.828,0.00139909
600.228,0.000551686
600.628,-0.000267421
601.028,-0.00105945
601.428,-0.00182556
601.828,-0.00256685
602.228,-0.00328436
602.628,-0.00397908
603.028,-0.00465196
603.428,-0.00530389
603.828,-0.00593572
604.228,-0.00654826
604.628,-0.00714227
605.028,-0.00771849
605.428,-0.00827761
605.828,-0.00882029
606.228,-0.00934718
606.628,-0.00985886
607.028,-0.0103559
607.428,-0.0108389
607.828,-0.0113083
608.228,-0.0117647
608.628,-0.0122084
609.028,-0.0126401
609.428,-0.01306
609.828,-0.0134687
610.228,-0.0138665
610.628,-0.0142537
611.028,-0.0146309
611.428,-0.0149982
611.828,-0.0153561
612.228,-0.0157048
612.628,-0.0160447

File: raman_peaks.csv
504.919, 0.0297999
507.428, 0.0258256
509.721, 0.0319982
512.435, 0.0337819
514.938, 0.0381058
516.603, 0.0470584
519.106, 0.0518433
520.772, 0.0587213
523.277, 0.0602791
524.943, 0.0683097
526.607, 0.077608
528.272, 0.0862148
530.776, 0.0900777
533.448, 0.0909403
534.953, 0.0895239
535.783, 0.097112
537.447, 0.106756
539.111, 0.117783
540.775, 0.127427
543.278, 0.132904
545.78, 0.13815
547.444, 0.148024
547.451, 0.137652
549.108, 0.159051
549.936, 0.169406
550.765, 0.178607
551.594, 0.189192
552.422, 0.198854
554.088, 0.205963
554.917, 0.215395
555.742, 0.231512
555.747, 0.224597
556.572, 0.239446
557.399, 0.252566
558.225, 0.266032
559.051, 0.28019
559.877, 0.29331
560.704, 0.306084
561.115, 0.315756
561.693, 0.327084
562.352, 0.340162
562.765, 0.347529
563.176, 0.35674
563.589, 0.364107
564.001, 0.372856
564.413, 0.380684
565.66, 0.390338
566.698, 0.399304
568.994, 0.400867
569.835, 0.39255
571.096, 0.380536
571.102, 0.372238
571.525, 0.36393
572.376, 0.341783
572.94, 0.329784
573.226, 0.319636
573.652, 0.306488
574.502, 0.285032
574.634, 0.295633
574.717, 0.275347
575.217, 0.256895
575.349, 0.267034
576.196, 0.25042
576.202, 0.242121
576.207, 0.233823
576.63, 0.225977
577.054, 0.217208
577.059, 0.20891
577.483, 0.199681
577.907, 0.190912
578.123, 0.180535
578.755, 0.171531
578.761, 0.163233
579.185, 0.153542
579.609, 0.143852
580.033, 0.134161
580.457, 0.124471
580.881, 0.116163
581.723, 0.106003
582.564, 0.0967639
583.407, 0.0866031
584.249, 0.0759813
585.091, 0.0658205
585.933, 0.0565818
587.611, 0.0451346
589.288, 0.0367993
590.964, 0.0281183
592.642, 0.0173626
595.152, 0.0125816
597.66, 0.00929883
600.165, 0.0101652
602.008, 0.00256375
603.796, -0.00558963
605.194, -0.0143798
607.703, -0.0190456
610.209, -0.0179487
612.715, -0.0186959