Folder: gan/kim_2002/xrd

Note: kim_2002/xrd/summary.md
## Raman

#### (002) Curve 1 
**Type**: Loretenzian\
**amplitude:** 1.6\
**center** 34.6\
**σ** 0.2


#### (004) Curve 2 
**Type**:Gaussian\
**amplitude** 0.1\
**center** 73.0\
**σ** 0.2\


## S<sup>2</sup>
**(002) Curve Integrated Area:** 0.618257\
**(004) Curve Integrated Area:** 0.030080\
**S<sup>2</sup>:** 0.3474















## Reference
XRD analyzed from:
DOI:10.1063/1.1507617

Note: README.md
## Data Repository for Disorder and Its Impact on Mobility of Undoped GaN
[![DOI](https://zenodo.org/badge/664896126.svg)](https://zenodo.org/badge/latestdoi/664896126)

File: curve_1_fit.dat
32.4056,0.00516216
32.5556,0.00594347
32.7056,0.00691627
32.8556,0.00814855
33.0056,0.00974128
33.1556,0.0118497
33.3056,0.0147221
33.4556,0.0187759
33.6056,0.0247559
33.7556,0.0340959
33.9056,0.0498413
34.0556,0.0793756
34.2056,0.144238
34.3556,0.325987
34.5056,0.997763
34.6556,1.35708
34.8056,0.440235
34.9556,0.178375
35.1056,0.093103
35.2556,0.0565757
35.4056,0.0378644
35.5556,0.0270675
35.7056,0.0202925
35.8556,0.0157694
36.0056,0.0126026
36.1556,0.0103004
36.3056,0.00857501
36.4556,0.00724887
36.6056,0.00620782
36.7556,0.00537571
36.9056,0.00470021
37.0556,0.00414437
37.2056,0.00368154
37.3556,0.00329207
37.5056,0.00296125
37.6556,0.00267788
37.8056,0.0024333
37.9556,0.00222075
38.1056,0.00203486
38.2556,0.00187137
38.4056,0.00172681
38.5556,0.00159837
38.7056,0.00148374
38.8556,0.00138101
39.0056,0.00128859
39.1556,0.00120514
39.3056,0.00112955
39.4556,0.00106084
39.6056,0.000998223
39.7556,0.000940986
39.9056,0.000888534
40.0556,0.000840348
40.2056,0.000795977
40.3556,0.000755029
40.5056,0.000717161
40.6556,0.000682071
40.8056,0.000649495
40.9556,0.000619198
41.1056,0.000590972
41.2556,0.000564633
41.4056,0.000540016
41.5556,0.000516975
41.7056,0.000495377
41.8556,0.000475105
42.0056,0.000456052
42.1556,0.000438122
42.3056,0.000421229
42.4556,0.000405295
42.6056,0.000390248
42.7556,0.000376024
42.9056,0.000362563
43.0556,0.000349812
43.2056,0.000337722
43.3556,0.000326249
43.5056,0.00031535
43.6556,0.000304988
43.8056,0.000295129
43.9556,0.00028574
44.1056,0.000276792
44.2556,0.000268258
44.4056,0.000260113
44.5556,0.000252333
44.7056,0.000244897
44.8556,0.000237784
45.0056,0.000230977
45.1556,0.000224459
45.3056,0.000218212
45.4556,0.000212223
45.6056,0.000206477
45.7556,0.000200961
45.9056,0.000195663
46.0556,0.000190572
46.2056,0.000185677
46.3556,0.000180968
46.5056,0.000176436
46.6556,0.000172072
46.8056,0.000167869
46.9556,0.000163817
47.1056,0.00015991
47.2556,0.000156142
47.4056,0.000152505
47.5556,0.000148993
47.7056,0.000145602
47.8556,0.000142325
48.0056,0.000139157
48.1556,0.000136094
48.3056,0.000133131
48.4556,0.000130264
48.6056,0.000127488
48.7556,0.0001248
48.9056,0.000122197
49.0556,0.000119674
49.2056,0.000117228
49.3556,0.000114856
49.5056,0.000112556
49.6556,0.000110324
49.8056,0.000108158
49.9556,0.000106055
50.1056,0.000104013
50.2556,0.000102029
50.4056,0.000100101
50.5556,9.82279e-05
50.7056,9.64065e-05
50.8556,9.46353e-05
51.0056,9.29125e-05
51.1556,9.12363e-05
51.3056,8.96051e-05
51.4556,8.80172e-05
51.6056,8.64711e-05
51.7556,8.49655e-05
51.9056,8.34988e-05
52.0556,8.20698e-05
52.2056,8.06771e-05
52.3556,7.93196e-05
52.5056,7.79961e-05
52.6556,7.67054e-05
52.8056,7.54465e-05
52.9556,7.42183e-05
53.1056,7.30199e-05
53.2556,7.18503e-05
53.4056,7.07085e-05
53.5556,6.95938e-05
53.7056,6.85052e-05
53.8556,6.74419e-05
54.0056,6.64032e-05
54.1556,6.53884e-05
54.3056,6.43966e-05
54.4556,6.34272e-05
54.6056,6.24795e-05
54.7556,6.15529e-05
54.9056,6.06468e-05
55.0556,5.97605e-05
55.2056,5.88936e-05
55.3556,5.80453e-05
55.5056,5.72153e-05
55.6556,5.64029e-05
55.8056,5.56077e-05
55.9556,5.48292e-05
56.1056,5.40669e-05
56.2556,5.33205e-05
56.4056,5.25893e-05
56.5556,5.18732e-05
56.7056,5.11715e-05
56.8556,5.0484e-05
57.0056,4.98102e-05
57.1556,4.91499e-05
57.3056,4.85026e-05
57.4556,4.7868e-05
57.6056,4.72457e-05
57.7556,4.66355e-05
57.9056,4.60371e-05
58.0556,4.54501e-05
58.2056,4.48743e-05
58.3556,4.43093e-05
58.5056,4.3755e-05
58.6556,4.3211e-05
58.8056,4.2677e-05
58.9556,4.21529e-05
59.1056,4.16384e-05
59.2556,4.11333e-05
59.4056,4.06373e-05
59.5556,4.01502e-05
59.7056,3.96718e-05
59.8556,3.92019e-05
60.0056,3.87403e-05
60.1556,3.82869e-05
60.3056,3.78413e-05
60.4556,3.74035e-05
60.6056,3.69732e-05
60.7556,3.65503e-05
60.9056,3.61346e-05
61.0556,3.5726e-05
61.2056,3.53242e-05
61.3556,3.49292e-05
61.5056,3.45408e-05
61.6556,3.41589e-05
61.8056,3.37832e-05
61.9556,3.34137e-05
62.1056,3.30502e-05
62.2556,3.26927e-05
62.4056,3.23409e-05
62.5556,3.19947e-05
62.7056,3.16541e-05
62.8556,3.13189e-05
63.0056,3.09889e-05
63.1556,3.06642e-05
63.3056,3.03445e-05
63.4556,3.00299e-05
63.6056,2.972e-05
63.7556,2.9415e-05
63.9056,2.91146e-05
64.0556,2.88188e-05
64.2056,2.85275e-05
64.3556,2.82406e-05
64.5056,2.7958e-05
64.6556,2.76796e-05
64.8056,2.74054e-05
64.9556,2.71352e-05
65.1056,2.6869e-05
65.2556,2.66066e-05
65.4056,2.63481e-05
65.5556,2.60934e-05
65.7056,2.58423e-05
65.8556,2.55949e-05
66.0056,2.53509e-05
66.1556,2.51105e-05
66.3056,2.48734e-05
66.4556,2.46397e-05
66.6056,2.44093e-05
66.7556,2.41821e-05
66.9056,2.3958e-05
67.0556,2.37371e-05
67.2056,2.35191e-05
67.3556,2.33042e-05
67.5056,2.30922e-05
67.6556,2.28831e-05
67.8056,2.26768e-05
67.9556,2.24733e-05
68.1056,2.22725e-05
68.2556,2.20744e-05
68.4056,2.1879e-05
68.5556,2.16861e-05
68.7056,2.14957e-05
68.8556,2.13079e-05
69.0056,2.11225e-05
69.1556,2.09395e-05
69.3056,2.07588e-05
69.4556,2.05805e-05
69.6056,2.04045e-05
69.7556,2.02308e-05
69.9056,2.00592e-05
70.0556,1.98898e-05
70.2056,1.97226e-05
70.3556,1.95575e-05
70.5056,1.93944e-05
70.6556,1.92333e-05
70.8056,1.90743e-05
70.9556,1.89172e-05
71.1056,1.87621e-05
71.2556,1.86088e-05
71.4056,1.84574e-05
71.5556,1.83079e-05
71.7056,1.81602e-05
71.8556,1.80142e-05
72.0056,1.787e-05
72.1556,1.77275e-05
72.3056,1.75868e-05
72.4556,1.74477e-05
72.6056,1.73102e-05
72.7556,1.71744e-05
72.9056,1.70401e-05
73.0556,1.69074e-05
73.2056,1.67763e-05
73.3556,1.66467e-05
73.5056,1.65185e-05
73.6556,1.63919e-05
73.8056,1.62667e-05
73.8556,1.62253e-05

File: curve_2_fit.dat
32.4056,0.0
32.5556,0.0
32.7056,0.0
32.8556,0.0
33.0056,0.0
33.1556,0.0
33.3056,0.0
33.4556,0.0
33.6056,0.0
33.7556,0.0
33.9056,0.0
34.0556,0.0
34.2056,0.0
34.3556,0.0
34.5056,0.0
34.6556,0.0
34.8056,0.0
34.9556,0.0
35.1056,0.0
35.2556,0.0
35.4056,0.0
35.5556,0.0
35.7056,0.0
35.8556,0.0
36.0056,0.0
36.1556,0.0
36.3056,0.0
36.4556,0.0
36.6056,0.0
36.7556,0.0
36.9056,0.0
37.0556,0.0
37.2056,0.0
37.3556,0.0
37.5056,0.0
37.6556,0.0
37.8056,0.0
37.9556,0.0
38.1056,0.0
38.2556,0.0
38.4056,0.0
38.5556,0.0
38.7056,0.0
38.8556,0.0
39.0056,0.0
39.1556,0.0
39.3056,0.0
39.4556,0.0
39.6056,0.0
39.7556,0.0
39.9056,0.0
40.0556,0.0
40.2056,0.0
40.3556,0.0
40.5056,0.0
40.6556,0.0
40.8056,0.0
40.9556,0.0
41.1056,0.0
41.2556,0.0
41.4056,0.0
41.5556,0.0
41.7056,0.0
41.8556,0.0
42.0056,0.0
42.1556,0.0
42.3056,0.0
42.4556,0.0
42.6056,0.0
42.7556,0.0
42.9056,0.0
43.0556,0.0
43.2056,0.0
43.3556,0.0
43.5056,0.0
43.6556,0.0
43.8056,0.0
43.9556,0.0
44.1056,0.0
44.2556,0.0
44.4056,0.0
44.5556,0.0
44.7056,0.0
44.8556,0.0
45.0056,0.0
45.1556,0.0
45.3056,0.0
45.4556,0.0
45.6056,0.0
45.7556,0.0
45.9056,0.0
46.0556,0.0
46.2056,0.0
46.3556,0.0
46.5056,0.0
46.6556,0.0
46.8056,0.0
46.9556,0.0
47.1056,0.0
47.2556,0.0
47.4056,0.0
47.5556,0.0
47.7056,0.0
47.8556,0.0
48.0056,0.0
48.1556,0.0
48.3056,0.0
48.4556,0.0
48.6056,0.0
48.7556,0.0
48.9056,0.0
49.0556,0.0
49.2056,0.0
49.3556,0.0
49.5056,0.0
49.6556,0.0
49.8056,0.0
49.9556,0.0
50.1056,0.0
50.2556,0.0
50.4056,0.0
50.5556,0.0
50.7056,0.0
50.8556,0.0
51.0056,0.0
51.1556,0.0
51.3056,0.0
51.4556,0.0
51.6056,0.0
51.7556,0.0
51.9056,0.0
52.0556,0.0
52.2056,0.0
52.3556,0.0
52.5056,0.0
52.6556,0.0
52.8056,0.0
52.9556,0.0
53.1056,0.0
53.2556,0.0
53.4056,0.0
53.5556,0.0
53.7056,0.0
53.8556,0.0
54.0056,0.0
54.1556,0.0
54.3056,0.0
54.4556,0.0
54.6056,0.0
54.7556,0.0
54.9056,0.0
55.0556,0.0
55.2056,0.0
55.3556,0.0
55.5056,0.0
55.6556,0.0
55.8056,0.0
55.9556,0.0
56.1056,0.0
56.2556,0.0
56.4056,0.0
56.5556,0.0
56.7056,0.0
56.8556,0.0
57.0056,0.0
57.1556,0.0
57.3056,0.0
57.4556,0.0
57.6056,0.0
57.7556,0.0
57.9056,0.0
58.0556,0.0
58.2056,0.0
58.3556,0.0
58.5056,0.0
58.6556,0.0
58.8056,0.0
58.9556,0.0
59.1056,0.0
59.2556,0.0
59.4056,0.0
59.5556,0.0
59.7056,0.0
59.8556,0.0
60.0056,0.0
60.1556,0.0
60.3056,0.0
60.4556,0.0
60.6056,0.0
60.7556,0.0
60.9056,0.0
61.0556,0.0
61.2056,0.0
61.3556,0.0
61.5056,0.0
61.6556,0.0
61.8056,0.0
61.9556,0.0
62.1056,0.0
62.2556,0.0
62.4056,0.0
62.5556,0.0
62.7056,0.0
62.8556,0.0
63.0056,0.0
63.1556,0.0
63.3056,0.0
63.4556,0.0
63.6056,0.0
63.7556,5e-324
63.9056,7.91217e-314
64.0556,1.25597e-303
64.2056,1.34901e-293
64.3556,9.8041e-284
64.5056,4.82117e-274
64.6556,1.60417e-264
64.8056,3.61163e-255
64.9556,5.50186e-246
65.1056,5.67112e-237
65.2556,3.95533e-228
65.4056,1.86659e-219
65.5556,5.96033e-211
65.7056,1.28779e-202
65.8556,1.88267e-194
66.0056,1.86232e-186
66.1556,1.2465e-178
66.3056,5.64521e-171
66.4556,1.72991e-163
66.6056,3.58691e-156
66.7556,5.03235e-149
66.9056,4.77722e-142
67.0556,3.06855e-135
67.2056,1.33366e-128
67.3556,3.92203e-122
67.5056,7.80422e-116
67.6556,1.05076e-109
67.8056,9.57258e-104
67.9556,5.90078e-98
68.1056,2.46118e-92
68.2556,6.94594e-87
68.4056,1.32639e-81
68.5556,1.71383e-76
68.7056,1.49836e-71
68.8556,8.86379e-67
69.0056,3.54794e-62
69.1556,9.60917e-58
69.3056,1.76096e-53
69.4556,2.18357e-49
69.6056,1.83206e-45
69.7556,1.04007e-41
69.9056,3.99523e-38
70.0556,1.03842e-34
70.2056,1.82625e-31
70.3556,2.1732e-28
70.5056,1.74982e-25
70.6556,9.53326e-23
70.8056,3.51433e-20
70.9556,8.76591e-18
71.1056,1.47947e-15
71.2556,1.68954e-13
71.4056,1.30552e-11
71.5556,6.82579e-10
71.7056,2.41477e-08
71.8556,5.78034e-07
72.0056,9.36233e-06
72.1556,0.000102605
72.3056,0.000760863
72.4556,0.00381767
72.6056,0.0129612
72.7556,0.0297744
72.9056,0.0462803
73.0556,0.0486747
73.2056,0.0346389
73.3556,0.0166793
73.5056,0.00543433
73.6556,0.00119803
73.8056,0.000178707
73.8556,8.68964e-05

File: curve_total_fit.dat
32.4056,0.0151622
32.5556,0.0159435
32.7056,0.0169163
32.8556,0.0181485
33.0056,0.0197413
33.1556,0.0218497
33.3056,0.0247221
33.4556,0.0287759
33.6056,0.0347559
33.7556,0.0440959
33.9056,0.0598413
34.0556,0.0893756
34.2056,0.154238
34.3556,0.335987
34.5056,1.00776
34.6556,1.36708
34.8056,0.450235
34.9556,0.188375
35.1056,0.103103
35.2556,0.0665757
35.4056,0.0478644
35.5556,0.0370675
35.7056,0.0302925
35.8556,0.0257694
36.0056,0.0226026
36.1556,0.0203004
36.3056,0.018575
36.4556,0.0172489
36.6056,0.0162078
36.7556,0.0153757
36.9056,0.0147002
37.0556,0.0141444
37.2056,0.0136815
37.3556,0.0132921
37.5056,0.0129613
37.6556,0.0126779
37.8056,0.0124333
37.9556,0.0122207
38.1056,0.0120349
38.2556,0.0118714
38.4056,0.0117268
38.5556,0.0115984
38.7056,0.0114837
38.8556,0.011381
39.0056,0.0112886
39.1556,0.0112051
39.3056,0.0111295
39.4556,0.0110608
39.6056,0.0109982
39.7556,0.010941
39.9056,0.0108885
40.0556,0.0108403
40.2056,0.010796
40.3556,0.010755
40.5056,0.0107172
40.6556,0.0106821
40.8056,0.0106495
40.9556,0.0106192
41.1056,0.010591
41.2556,0.0105646
41.4056,0.01054
41.5556,0.010517
41.7056,0.0104954
41.8556,0.0104751
42.0056,0.0104561
42.1556,0.0104381
42.3056,0.0104212
42.4556,0.0104053
42.6056,0.0103902
42.7556,0.010376
42.9056,0.0103626
43.0556,0.0103498
43.2056,0.0103377
43.3556,0.0103262
43.5056,0.0103153
43.6556,0.010305
43.8056,0.0102951
43.9556,0.0102857
44.1056,0.0102768
44.2556,0.0102683
44.4056,0.0102601
44.5556,0.0102523
44.7056,0.0102449
44.8556,0.0102378
45.0056,0.010231
45.1556,0.0102245
45.3056,0.0102182
45.4556,0.0102122
45.6056,0.0102065
45.7556,0.010201
45.9056,0.0101957
46.0556,0.0101906
46.2056,0.0101857
46.3556,0.010181
46.5056,0.0101764
46.6556,0.0101721
46.8056,0.0101679
46.9556,0.0101638
47.1056,0.0101599
47.2556,0.0101561
47.4056,0.0101525
47.5556,0.010149
47.7056,0.0101456
47.8556,0.0101423
48.0056,0.0101392
48.1556,0.0101361
48.3056,0.0101331
48.4556,0.0101303
48.6056,0.0101275
48.7556,0.0101248
48.9056,0.0101222
49.0556,0.0101197
49.2056,0.0101172
49.3556,0.0101149
49.5056,0.0101126
49.6556,0.0101103
49.8056,0.0101082
49.9556,0.0101061
50.1056,0.010104
50.2556,0.010102
50.4056,0.0101001
50.5556,0.0100982
50.7056,0.0100964
50.8556,0.0100946
51.0056,0.0100929
51.1556,0.0100912
51.3056,0.0100896
51.4556,0.010088
51.6056,0.0100865
51.7556,0.010085
51.9056,0.0100835
52.0556,0.0100821
52.2056,0.0100807
52.3556,0.0100793
52.5056,0.010078
52.6556,0.0100767
52.8056,0.0100754
52.9556,0.0100742
53.1056,0.010073
53.2556,0.0100719
53.4056,0.0100707
53.5556,0.0100696
53.7056,0.0100685
53.8556,0.0100674
54.0056,0.0100664
54.1556,0.0100654
54.3056,0.0100644
54.4556,0.0100634
54.6056,0.0100625
54.7556,0.0100616
54.9056,0.0100606
55.0556,0.0100598
55.2056,0.0100589
55.3556,0.010058
55.5056,0.0100572
55.6556,0.0100564
55.8056,0.0100556
55.9556,0.0100548
56.1056,0.0100541
56.2556,0.0100533
56.4056,0.0100526
56.5556,0.0100519
56.7056,0.0100512
56.8556,0.0100505
57.0056,0.0100498
57.1556,0.0100491
57.3056,0.0100485
57.4556,0.0100479
57.6056,0.0100472
57.7556,0.0100466
57.9056,0.010046
58.0556,0.0100455
58.2056,0.0100449
58.3556,0.0100443
58.5056,0.0100438
58.6556,0.0100432
58.8056,0.0100427
58.9556,0.0100422
59.1056,0.0100416
59.2556,0.0100411
59.4056,0.0100406
59.5556,0.0100402
59.7056,0.0100397
59.8556,0.0100392
60.0056,0.0100387
60.1556,0.0100383
60.3056,0.0100378
60.4556,0.0100374
60.6056,0.010037
60.7556,0.0100366
60.9056,0.0100361
61.0556,0.0100357
61.2056,0.0100353
61.3556,0.0100349
61.5056,0.0100345
61.6556,0.0100342
61.8056,0.0100338
61.9556,0.0100334
62.1056,0.0100331
62.2556,0.0100327
62.4056,0.0100323
62.5556,0.010032
62.7056,0.0100317
62.8556,0.0100313
63.0056,0.010031
63.1556,0.0100307
63.3056,0.0100303
63.4556,0.01003
63.6056,0.0100297
63.7556,0.0100294
63.9056,0.0100291
64.0556,0.0100288
64.2056,0.0100285
64.3556,0.0100282
64.5056,0.010028
64.6556,0.0100277
64.8056,0.0100274
64.9556,0.0100271
65.1056,0.0100269
65.2556,0.0100266
65.4056,0.0100263
65.5556,0.0100261
65.7056,0.0100258
65.8556,0.0100256
66.0056,0.0100254
66.1556,0.0100251
66.3056,0.0100249
66.4556,0.0100246
66.6056,0.0100244
66.7556,0.0100242
66.9056,0.010024
67.0556,0.0100237
67.2056,0.0100235
67.3556,0.0100233
67.5056,0.0100231
67.6556,0.0100229
67.8056,0.0100227
67.9556,0.0100225
68.1056,0.0100223
68.2556,0.0100221
68.4056,0.0100219
68.5556,0.0100217
68.7056,0.0100215
68.8556,0.0100213
69.0056,0.0100211
69.1556,0.0100209
69.3056,0.0100208
69.4556,0.0100206
69.6056,0.0100204
69.7556,0.0100202
69.9056,0.0100201
70.0556,0.0100199
70.2056,0.0100197
70.3556,0.0100196
70.5056,0.0100194
70.6556,0.0100192
70.8056,0.0100191
70.9556,0.0100189
71.1056,0.0100188
71.2556,0.0100186
71.4056,0.0100185
71.5556,0.0100183
71.7056,0.0100182
71.8556,0.0100186
72.0056,0.0100272
72.1556,0.0101203
72.3056,0.0107785
72.4556,0.0138351
72.6056,0.0229785
72.7556,0.0397916
72.9056,0.0562974
73.0556,0.0586916
73.2056,0.0446556
73.3556,0.0266959
73.5056,0.0154508
73.6556,0.0112144
73.8056,0.010195
73.8556,0.0101031

File: xrd.csv
32.0069, 0.0213647
32.605, 0.0176232
32.993, 0.0178013
33.3526, 0.0151288
33.7364, 0.0183715
33.9614, 0.019583
34.1109, 0.0315204
34.1999, 0.0450613
34.2497, 0.151696
34.2497, 0.131741
34.2497, 0.111786
34.2497, 0.0918307
34.2497, 0.0718758
34.2547, 0.172524
34.2996, 0.40924
34.2996, 0.389285
34.2996, 0.36933
34.2996, 0.349375
34.2996, 0.32942
34.2996, 0.309465
34.2996, 0.28951
34.2996, 0.269555
34.2996, 0.2496
34.2996, 0.229645
34.2996, 0.20969
34.2996, 0.189735
34.3079, 0.181005
34.3494, 0.0506736
34.3743, 0.106173
34.3743, 0.0862184
34.3992, 0.153566
34.3992, 0.133611
34.3992, 0.11428
34.4159, 0.443329
34.4242, 0.683205
34.4242, 0.66325
34.4242, 0.643295
34.4242, 0.62334
34.4242, 0.603385
34.4242, 0.58343
34.4242, 0.563475
34.4242, 0.54352
34.4242, 0.523565
34.4242, 0.50361
34.4242, 0.483655
34.4242, 0.4637
34.4242, 0.340644
34.4242, 0.320689
34.4242, 0.300734
34.4242, 0.280779
34.4242, 0.260824
34.4242, 0.240869
34.4242, 0.220914
34.4242, 0.200959
34.4242, 0.181005
34.4491, 1.06089
34.4491, 1.04094
34.4491, 1.02098
34.4491, 1.00103
34.4491, 0.981074
34.4491, 0.961119
34.4491, 0.941164
34.4491, 0.921209
34.4491, 0.901254
34.4491, 0.881299
34.4491, 0.861344
34.4491, 0.821435
34.4491, 0.80148
34.4491, 0.781525
34.4491, 0.76157
34.4491, 0.741615
34.4491, 0.72166
34.4491, 0.701705
34.4491, 0.427947
34.4491, 0.407992
34.4491, 0.388037
34.4491, 0.368082
34.4491, 0.348751
34.464, 0.842429
34.4989, 1.42507
34.4989, 1.40512
34.4989, 1.38516
34.4989, 1.36521
34.4989, 1.34525
34.4989, 1.3253
34.4989, 1.30534
34.4989, 1.28539
34.4989, 1.26543
34.4989, 1.24548
34.4989, 1.22552
34.4989, 1.20557
34.4989, 1.18561
34.4989, 1.16566
34.4989, 1.1457
34.4989, 1.12575
34.4989, 1.10579
34.5096, 1.44886
34.5488, 1.52111
34.5488, 1.50115
34.5488, 1.4812
34.5571, 1.46311
34.6401, 0.902709
34.6401, 0.882755
34.6401, 0.8628
34.6484, 1.54231
34.6484, 1.06277
34.6484, 1.04281
34.6484, 1.02286
34.6484, 1.0029
34.6484, 0.982945
34.6484, 0.96299
34.6484, 0.943035
34.6484, 0.92308
34.6484, 0.840766
34.6484, 0.820811
34.6484, 0.800856
34.6484, 0.780901
34.6484, 0.760946
34.6484, 0.740991
34.6484, 0.721036
34.6484, 0.701081
34.6634, 1.08397
34.6983, 1.44004
34.6983, 1.42008
34.6983, 1.40013
34.6983, 1.38017
34.6983, 1.36022
34.6983, 1.34026
34.6983, 1.32031
34.6983, 1.30035
34.6983, 1.2804
34.6983, 1.26044
34.6983, 1.24049
34.6983, 1.22053
34.6983, 1.20058
34.6983, 1.18062
34.6983, 1.16067
34.6983, 1.14071
34.6983, 1.12076
34.6983, 1.1008
34.7232, 1.5288
34.7481, 1.50988
34.7481, 1.48993
34.7481, 1.46997
34.783, 0.486565
34.798, 0.656806
34.798, 0.636851
34.798, 0.616896
34.798, 0.596941
34.798, 0.576986
34.798, 0.557031
34.798, 0.537076
34.798, 0.517121
34.798, 0.497166
34.8229, 1.06484
34.8229, 1.04489
34.8229, 1.02493
34.8229, 1.00498
34.8229, 0.985024
34.8229, 0.965069
34.8229, 0.945114
34.8229, 0.925159
34.8229, 0.905204
34.8229, 0.885249
34.8229, 0.865294
34.8229, 0.845339
34.8229, 0.825384
34.8229, 0.805429
34.8229, 0.785474
34.8229, 0.765519
34.8229, 0.745564
34.8229, 0.725609
34.8229, 0.705654
34.8229, 1.45313
34.8229, 1.43318
34.8229, 1.41322
34.8229, 1.39327
34.8229, 1.37331
34.8229, 1.35336
34.8229, 1.3334
34.8229, 1.31345
34.8229, 1.29349
34.8229, 1.27354
34.8229, 1.25358
34.8229, 1.23363
34.8229, 1.21367
34.8229, 1.19372
34.8478, 1.18374
34.8478, 1.16379
34.8478, 1.14383
34.8478, 1.12388
34.8478, 1.10392
34.8628, 0.479581
34.8976, 0.44229
34.8976, 0.422335
34.8976, 0.40238
34.8976, 0.382425
34.8976, 0.36247
34.8976, 0.342515
34.8976, 0.32256
34.8976, 0.302605
34.8976, 0.28265
34.8976, 0.262695
34.8976, 0.24274
34.8976, 0.222785
34.8976, 0.20283
34.9143, 0.464531
34.9475, 0.161673
34.9475, 0.141718
34.9475, 0.121763
34.9475, 0.101808
34.9475, 0.643711
34.9475, 0.623756
34.9475, 0.603801
34.9475, 0.583846
34.9475, 0.563891
34.9475, 0.543936
34.9475, 0.523981
34.9475, 0.504026
34.951, 0.0352025
34.9624, 0.183499
35.0123, 0.026104
35.0222, 0.220914
35.0222, 0.200959
35.0472, 0.0494264
35.097, 0.112409
35.097, 0.0924543
35.1468, 0.0210529
35.1967, 0.0400725
35.3569, 0.018514
35.71, 0.0178726
72.1283, 0.00671028
72.5146, 0.011699
72.7929, 0.0357074
72.8909, 0.0592792
73.2198, 0.0378276
73.2248, 0.05005
73.4408, 0.00910072
73.6734, 0.00359232
73.8578, 0.00889286