Folder: gan/chaaben_2006/xrd

Note: chaaben_2006/xrd/summary.md
## Raman

#### Curve 1 (002)
**Type**: Gaussian\
**amplitude:** 84000.0\
**center** 34.8\
**σ** 0.1


#### Curve 2 (004)
**Type**:Gaussian\
**amplitude** 7295.5\
**center** 73.1\
**σ** 0.1\


## S<sup>2</sup>
**(002) Curve Integrated Area:** 23235.464439\
**(004) Curve Integrated Area:** 2062.385628\
**S<sup>2</sup>:** 0.7381



















## Reference
XRD analyzed from:
DOI:10.1016/j.apsusc.2006.05.128

Note: README.md
## Data Repository for Disorder and Its Impact on Mobility of Undoped GaN
[![DOI](https://zenodo.org/badge/664896126.svg)](https://zenodo.org/badge/latestdoi/664896126)

File: curve_1_fit.dat
32.4225,1.88274e-92
32.5725,2.12709e-80
32.7225,3.78757e-69
32.8725,1.06295e-58
33.0225,4.70158e-49
33.1725,3.27758e-40
33.3225,3.60115e-32
33.4725,6.23603e-25
33.6225,1.70197e-18
33.7725,7.32111e-13
33.9225,4.96339e-08
34.0725,0.000530346
34.2225,0.893138
34.3725,237.059
34.5225,9916.81
34.6725,65383.3
34.8225,67942.3
34.9725,11127.3
35.1225,287.225
35.2725,1.1685
35.4225,0.000749234
35.5725,7.57152e-08
35.7225,1.20594e-12
35.8725,3.02726e-18
36.0225,1.19771e-24
36.1725,7.46845e-32
36.3225,7.33988e-40
36.4725,1.13691e-48
36.6225,2.7755e-58
36.7725,1.06791e-68
36.9225,6.476e-80
37.0725,6.18952e-92
37.2225,9.32366e-105
37.3725,2.21357e-118
37.5225,8.28286e-133
37.6725,4.88478e-148
37.8225,4.54034e-164
37.9725,6.65135e-181
38.1225,1.53571e-198
38.2725,5.58842e-217
38.4225,3.20513e-236
38.5725,2.89722e-256
38.7225,4.12758e-277
38.8725,9.26806e-299
39.0225,0.0
39.1725,0.0
39.3225,0.0
39.4725,0.0
39.6225,0.0
39.7725,0.0
39.9225,0.0
40.0725,0.0
40.2225,0.0
40.3725,0.0
40.5225,0.0
40.6725,0.0
40.8225,0.0
40.9725,0.0
41.1225,0.0
41.2725,0.0
41.4225,0.0
41.5725,0.0
41.7225,0.0
41.8725,0.0
42.0225,0.0
42.1725,0.0
42.3225,0.0
42.4725,0.0
42.6225,0.0
42.7725,0.0
42.9225,0.0
43.0725,0.0
43.2225,0.0
43.3725,0.0
43.5225,0.0
43.6725,0.0
43.8225,0.0
43.9725,0.0
44.1225,0.0
44.2725,0.0
44.4225,0.0
44.5725,0.0
44.7225,0.0
44.8725,0.0
45.0225,0.0
45.1725,0.0
45.3225,0.0
45.4725,0.0
45.6225,0.0
45.7725,0.0
45.9225,0.0
46.0725,0.0
46.2225,0.0
46.3725,0.0
46.5225,0.0
46.6725,0.0
46.8225,0.0
46.9725,0.0
47.1225,0.0
47.2725,0.0
47.4225,0.0
47.5725,0.0
47.7225,0.0
47.8725,0.0
48.0225,0.0
48.1725,0.0
48.3225,0.0
48.4725,0.0
48.6225,0.0
48.7725,0.0
48.9225,0.0
49.0725,0.0
49.2225,0.0
49.3725,0.0
49.5225,0.0
49.6725,0.0
49.8225,0.0
49.9725,0.0
50.1225,0.0
50.2725,0.0
50.4225,0.0
50.5725,0.0
50.7225,0.0
50.8725,0.0
51.0225,0.0
51.1725,0.0
51.3225,0.0
51.4725,0.0
51.6225,0.0
51.7725,0.0
51.9225,0.0
52.0725,0.0
52.2225,0.0
52.3725,0.0
52.5225,0.0
52.6725,0.0
52.8225,0.0
52.9725,0.0
53.1225,0.0
53.2725,0.0
53.4225,0.0
53.5725,0.0
53.7225,0.0
53.8725,0.0
54.0225,0.0
54.1725,0.0
54.3225,0.0
54.4725,0.0
54.6225,0.0
54.7725,0.0
54.9225,0.0
55.0725,0.0
55.2225,0.0
55.3725,0.0
55.5225,0.0
55.6725,0.0
55.8225,0.0
55.9725,0.0
56.1225,0.0
56.2725,0.0
56.4225,0.0
56.5725,0.0
56.7225,0.0
56.8725,0.0
57.0225,0.0
57.1725,0.0
57.3225,0.0
57.4725,0.0
57.6225,0.0
57.7725,0.0
57.9225,0.0
58.0725,0.0
58.2225,0.0
58.3725,0.0
58.5225,0.0
58.6725,0.0
58.8225,0.0
58.9725,0.0
59.1225,0.0
59.2725,0.0
59.4225,0.0
59.5725,0.0
59.7225,0.0
59.8725,0.0
60.0225,0.0
60.1725,0.0
60.3225,0.0
60.4725,0.0
60.6225,0.0
60.7725,0.0
60.9225,0.0
61.0725,0.0
61.2225,0.0
61.3725,0.0
61.5225,0.0
61.6725,0.0
61.8225,0.0
61.9725,0.0
62.1225,0.0
62.2725,0.0
62.4225,0.0
62.5725,0.0
62.7225,0.0
62.8725,0.0
63.0225,0.0
63.1725,0.0
63.3225,0.0
63.4725,0.0
63.6225,0.0
63.7725,0.0
63.9225,0.0
64.0725,0.0
64.2225,0.0
64.3725,0.0
64.5225,0.0
64.6725,0.0
64.8225,0.0
64.9725,0.0
65.1225,0.0
65.2725,0.0
65.4225,0.0
65.5725,0.0
65.7225,0.0
65.8725,0.0
66.0225,0.0
66.1725,0.0
66.3225,0.0
66.4725,0.0
66.6225,0.0
66.7725,0.0
66.9225,0.0
67.0725,0.0
67.2225,0.0
67.3725,0.0
67.5225,0.0
67.6725,0.0
67.8225,0.0
67.9725,0.0
68.1225,0.0
68.2725,0.0
68.4225,0.0
68.5725,0.0
68.7225,0.0
68.8725,0.0
69.0225,0.0
69.1725,0.0
69.3225,0.0
69.4725,0.0
69.6225,0.0
69.7725,0.0
69.9225,0.0
70.0725,0.0
70.2225,0.0
70.3725,0.0
70.5225,0.0
70.6725,0.0
70.8225,0.0
70.9725,0.0
71.1225,0.0
71.2725,0.0
71.4225,0.0
71.5725,0.0
71.7225,0.0
71.8725,0.0
72.0225,0.0
72.1725,0.0
72.3225,0.0
72.4725,0.0
72.6225,0.0
72.7725,0.0
72.9225,0.0
73.0725,0.0
73.2225,0.0
73.3725,0.0
73.5225,0.0
73.6725,0.0
73.8225,0.0
73.9725,0.0
74.1225,0.0
74.2725,0.0
74.4225,0.0
74.5725,0.0
74.7225,0.0
74.8725,0.0
75.0225,0.0
75.1725,0.0
75.3225,0.0
75.4725,0.0
75.6225,0.0
75.7725,0.0

File: curve_2_fit.dat
32.4225,0.0
32.5725,0.0
32.7225,0.0
32.8725,0.0
33.0225,0.0
33.1725,0.0
33.3225,0.0
33.4725,0.0
33.6225,0.0
33.7725,0.0
33.9225,0.0
34.0725,0.0
34.2225,0.0
34.3725,0.0
34.5225,0.0
34.6725,0.0
34.8225,0.0
34.9725,0.0
35.1225,0.0
35.2725,0.0
35.4225,0.0
35.5725,0.0
35.7225,0.0
35.8725,0.0
36.0225,0.0
36.1725,0.0
36.3225,0.0
36.4725,0.0
36.6225,0.0
36.7725,0.0
36.9225,0.0
37.0725,0.0
37.2225,0.0
37.3725,0.0
37.5225,0.0
37.6725,0.0
37.8225,0.0
37.9725,0.0
38.1225,0.0
38.2725,0.0
38.4225,0.0
38.5725,0.0
38.7225,0.0
38.8725,0.0
39.0225,0.0
39.1725,0.0
39.3225,0.0
39.4725,0.0
39.6225,0.0
39.7725,0.0
39.9225,0.0
40.0725,0.0
40.2225,0.0
40.3725,0.0
40.5225,0.0
40.6725,0.0
40.8225,0.0
40.9725,0.0
41.1225,0.0
41.2725,0.0
41.4225,0.0
41.5725,0.0
41.7225,0.0
41.8725,0.0
42.0225,0.0
42.1725,0.0
42.3225,0.0
42.4725,0.0
42.6225,0.0
42.7725,0.0
42.9225,0.0
43.0725,0.0
43.2225,0.0
43.3725,0.0
43.5225,0.0
43.6725,0.0
43.8225,0.0
43.9725,0.0
44.1225,0.0
44.2725,0.0
44.4225,0.0
44.5725,0.0
44.7225,0.0
44.8725,0.0
45.0225,0.0
45.1725,0.0
45.3225,0.0
45.4725,0.0
45.6225,0.0
45.7725,0.0
45.9225,0.0
46.0725,0.0
46.2225,0.0
46.3725,0.0
46.5225,0.0
46.6725,0.0
46.8225,0.0
46.9725,0.0
47.1225,0.0
47.2725,0.0
47.4225,0.0
47.5725,0.0
47.7225,0.0
47.8725,0.0
48.0225,0.0
48.1725,0.0
48.3225,0.0
48.4725,0.0
48.6225,0.0
48.7725,0.0
48.9225,0.0
49.0725,0.0
49.2225,0.0
49.3725,0.0
49.5225,0.0
49.6725,0.0
49.8225,0.0
49.9725,0.0
50.1225,0.0
50.2725,0.0
50.4225,0.0
50.5725,0.0
50.7225,0.0
50.8725,0.0
51.0225,0.0
51.1725,0.0
51.3225,0.0
51.4725,0.0
51.6225,0.0
51.7725,0.0
51.9225,0.0
52.0725,0.0
52.2225,0.0
52.3725,0.0
52.5225,0.0
52.6725,0.0
52.8225,0.0
52.9725,0.0
53.1225,0.0
53.2725,0.0
53.4225,0.0
53.5725,0.0
53.7225,0.0
53.8725,0.0
54.0225,0.0
54.1725,0.0
54.3225,0.0
54.4725,0.0
54.6225,0.0
54.7725,0.0
54.9225,0.0
55.0725,0.0
55.2225,0.0
55.3725,0.0
55.5225,0.0
55.6725,0.0
55.8225,0.0
55.9725,0.0
56.1225,0.0
56.2725,0.0
56.4225,0.0
56.5725,0.0
56.7225,0.0
56.8725,0.0
57.0225,0.0
57.1725,0.0
57.3225,0.0
57.4725,0.0
57.6225,0.0
57.7725,0.0
57.9225,0.0
58.0725,0.0
58.2225,0.0
58.3725,0.0
58.5225,0.0
58.6725,0.0
58.8225,0.0
58.9725,0.0
59.1225,0.0
59.2725,0.0
59.4225,0.0
59.5725,0.0
59.7225,0.0
59.8725,0.0
60.0225,0.0
60.1725,0.0
60.3225,0.0
60.4725,0.0
60.6225,0.0
60.7725,0.0
60.9225,0.0
61.0725,0.0
61.2225,0.0
61.3725,0.0
61.5225,0.0
61.6725,0.0
61.8225,0.0
61.9725,0.0
62.1225,0.0
62.2725,0.0
62.4225,0.0
62.5725,0.0
62.7225,0.0
62.8725,0.0
63.0225,0.0
63.1725,0.0
63.3225,0.0
63.4725,0.0
63.6225,0.0
63.7725,0.0
63.9225,0.0
64.0725,0.0
64.2225,0.0
64.3725,0.0
64.5225,0.0
64.6725,0.0
64.8225,0.0
64.9725,0.0
65.1225,0.0
65.2725,0.0
65.4225,0.0
65.5725,0.0
65.7225,0.0
65.8725,0.0
66.0225,0.0
66.1725,0.0
66.3225,0.0
66.4725,0.0
66.6225,0.0
66.7725,0.0
66.9225,0.0
67.0725,0.0
67.2225,0.0
67.3725,0.0
67.5225,0.0
67.6725,0.0
67.8225,0.0
67.9725,0.0
68.1225,0.0
68.2725,0.0
68.4225,0.0
68.5725,0.0
68.7225,0.0
68.8725,1.03119e-300
69.0225,1.72389e-279
69.1725,4.91374e-259
69.3225,2.38807e-239
69.4725,1.97886e-220
69.6225,2.79586e-202
69.7725,6.73517e-185
69.9225,2.7664e-168
70.0725,1.93737e-152
70.2225,2.31337e-137
70.3725,4.70988e-123
70.5225,1.63496e-109
70.6725,9.67692e-97
70.8225,9.76562e-85
70.9725,1.68033e-73
71.1225,4.92974e-63
71.2725,2.46595e-53
71.4225,2.10319e-44
71.5725,3.05848e-36
71.7225,7.58343e-29
71.8725,3.20596e-22
72.0225,2.31091e-16
72.1725,2.84015e-11
72.3225,5.95157e-07
72.4725,0.00212645
72.6225,1.29542
72.7725,134.555
72.9225,2382.99
73.0725,7195.77
73.2225,3704.8
73.3725,325.226
73.5225,4.86786
73.6725,0.0124229
73.8225,5.40558e-06
73.9725,4.01046e-10
74.1225,5.07315e-15
74.2725,1.0942e-20
74.4225,4.02388e-27
74.5725,2.52306e-34
74.7225,2.69738e-42
74.8725,4.91689e-51
75.0225,1.52817e-60
75.1725,8.09814e-71
75.3225,7.31698e-82
75.4725,1.12723e-93
75.6225,2.9609e-106
75.7725,1.32608e-119

File: curve_total_fit.dat
32.4225,0.5
32.5725,0.5
32.7225,0.5
32.8725,0.5
33.0225,0.5
33.1725,0.5
33.3225,0.5
33.4725,0.5
33.6225,0.5
33.7725,0.5
33.9225,0.5
34.0725,0.50053
34.2225,1.39314
34.3725,237.559
34.5225,9917.31
34.6725,65383.8
34.8225,67942.8
34.9725,11127.8
35.1225,287.725
35.2725,1.6685
35.4225,0.500749
35.5725,0.5
35.7225,0.5
35.8725,0.5
36.0225,0.5
36.1725,0.5
36.3225,0.5
36.4725,0.5
36.6225,0.5
36.7725,0.5
36.9225,0.5
37.0725,0.5
37.2225,0.5
37.3725,0.5
37.5225,0.5
37.6725,0.5
37.8225,0.5
37.9725,0.5
38.1225,0.5
38.2725,0.5
38.4225,0.5
38.5725,0.5
38.7225,0.5
38.8725,0.5
39.0225,0.5
39.1725,0.5
39.3225,0.5
39.4725,0.5
39.6225,0.5
39.7725,0.5
39.9225,0.5
40.0725,0.5
40.2225,0.5
40.3725,0.5
40.5225,0.5
40.6725,0.5
40.8225,0.5
40.9725,0.5
41.1225,0.5
41.2725,0.5
41.4225,0.5
41.5725,0.5
41.7225,0.5
41.8725,0.5
42.0225,0.5
42.1725,0.5
42.3225,0.5
42.4725,0.5
42.6225,0.5
42.7725,0.5
42.9225,0.5
43.0725,0.5
43.2225,0.5
43.3725,0.5
43.5225,0.5
43.6725,0.5
43.8225,0.5
43.9725,0.5
44.1225,0.5
44.2725,0.5
44.4225,0.5
44.5725,0.5
44.7225,0.5
44.8725,0.5
45.0225,0.5
45.1725,0.5
45.3225,0.5
45.4725,0.5
45.6225,0.5
45.7725,0.5
45.9225,0.5
46.0725,0.5
46.2225,0.5
46.3725,0.5
46.5225,0.5
46.6725,0.5
46.8225,0.5
46.9725,0.5
47.1225,0.5
47.2725,0.5
47.4225,0.5
47.5725,0.5
47.7225,0.5
47.8725,0.5
48.0225,0.5
48.1725,0.5
48.3225,0.5
48.4725,0.5
48.6225,0.5
48.7725,0.5
48.9225,0.5
49.0725,0.5
49.2225,0.5
49.3725,0.5
49.5225,0.5
49.6725,0.5
49.8225,0.5
49.9725,0.5
50.1225,0.5
50.2725,0.5
50.4225,0.5
50.5725,0.5
50.7225,0.5
50.8725,0.5
51.0225,0.5
51.1725,0.5
51.3225,0.5
51.4725,0.5
51.6225,0.5
51.7725,0.5
51.9225,0.5
52.0725,0.5
52.2225,0.5
52.3725,0.5
52.5225,0.5
52.6725,0.5
52.8225,0.5
52.9725,0.5
53.1225,0.5
53.2725,0.5
53.4225,0.5
53.5725,0.5
53.7225,0.5
53.8725,0.5
54.0225,0.5
54.1725,0.5
54.3225,0.5
54.4725,0.5
54.6225,0.5
54.7725,0.5
54.9225,0.5
55.0725,0.5
55.2225,0.5
55.3725,0.5
55.5225,0.5
55.6725,0.5
55.8225,0.5
55.9725,0.5
56.1225,0.5
56.2725,0.5
56.4225,0.5
56.5725,0.5
56.7225,0.5
56.8725,0.5
57.0225,0.5
57.1725,0.5
57.3225,0.5
57.4725,0.5
57.6225,0.5
57.7725,0.5
57.9225,0.5
58.0725,0.5
58.2225,0.5
58.3725,0.5
58.5225,0.5
58.6725,0.5
58.8225,0.5
58.9725,0.5
59.1225,0.5
59.2725,0.5
59.4225,0.5
59.5725,0.5
59.7225,0.5
59.8725,0.5
60.0225,0.5
60.1725,0.5
60.3225,0.5
60.4725,0.5
60.6225,0.5
60.7725,0.5
60.9225,0.5
61.0725,0.5
61.2225,0.5
61.3725,0.5
61.5225,0.5
61.6725,0.5
61.8225,0.5
61.9725,0.5
62.1225,0.5
62.2725,0.5
62.4225,0.5
62.5725,0.5
62.7225,0.5
62.8725,0.5
63.0225,0.5
63.1725,0.5
63.3225,0.5
63.4725,0.5
63.6225,0.5
63.7725,0.5
63.9225,0.5
64.0725,0.5
64.2225,0.5
64.3725,0.5
64.5225,0.5
64.6725,0.5
64.8225,0.5
64.9725,0.5
65.1225,0.5
65.2725,0.5
65.4225,0.5
65.5725,0.5
65.7225,0.5
65.8725,0.5
66.0225,0.5
66.1725,0.5
66.3225,0.5
66.4725,0.5
66.6225,0.5
66.7725,0.5
66.9225,0.5
67.0725,0.5
67.2225,0.5
67.3725,0.5
67.5225,0.5
67.6725,0.5
67.8225,0.5
67.9725,0.5
68.1225,0.5
68.2725,0.5
68.4225,0.5
68.5725,0.5
68.7225,0.5
68.8725,0.5
69.0225,0.5
69.1725,0.5
69.3225,0.5
69.4725,0.5
69.6225,0.5
69.7725,0.5
69.9225,0.5
70.0725,0.5
70.2225,0.5
70.3725,0.5
70.5225,0.5
70.6725,0.5
70.8225,0.5
70.9725,0.5
71.1225,0.5
71.2725,0.5
71.4225,0.5
71.5725,0.5
71.7225,0.5
71.8725,0.5
72.0225,0.5
72.1725,0.5
72.3225,0.500001
72.4725,0.502126
72.6225,1.79542
72.7725,135.055
72.9225,2383.49
73.0725,7196.27
73.2225,3705.3
73.3725,325.726
73.5225,5.36786
73.6725,0.512423
73.8225,0.500005
73.9725,0.5
74.1225,0.5
74.2725,0.5
74.4225,0.5
74.5725,0.5
74.7225,0.5
74.8725,0.5
75.0225,0.5
75.1725,0.5
75.3225,0.5
75.4725,0.5
75.6225,0.5
75.7725,0.5

File: xrd.csv
32.4192, 1.94098
32.4225, 1.02313
32.4654, 1.34279
32.5292, 4.3215
32.5711, 2.84152
32.7196, 2.02409
32.8029, 3.05261
32.9441, 2.07882
32.9982, 1.06288
33, 1.57992
33.0608, 3.46062
33.2186, 2.30122
33.2708, 3.63575
33.2886, 1.09579
33.351, 1.82894
33.4528, 2.65311
33.5981, 4.41665
33.6072, 6.69024
33.6504, 1.50929
33.6523, 2.27795
33.7037, 3.07128
33.8054, 4.38788
33.878, 7.48164
33.9602, 11.8204
34.0615, 15.553
34.1651, 33.3329
34.2191, 78.2816
34.3219, 139.722
34.4818, 1180.95
34.5964, 27302.1
34.5981, 39364.5
34.7517, 84365.3
34.8503, 60325
34.9841, 1755.42
35.1215, 110.596
35.2676, 46.1451
35.4463, 25.6246
35.6143, 20.8421
35.7661, 29.9588
35.8438, 53.4724
36.0207, 77.3326
36.2197, 60.4087
36.3326, 25.8535
36.3425, 36.5258
36.4138, 16.0345
36.4519, 10.5272
36.6596, 6.1929
36.7002, 3.05494
36.7249, 4.54679
36.7931, 2.51525
36.9327, 3.84478
36.9604, 1.79168
36.9951, 1.15627
37.0229, 2.7632
37.2046, 1.8495
37.2553, 2.14318
37.2695, 1.25695
37.2903, 3.09007
37.3721, 1.05642
37.4296, 1.78486
37.431, 2.42119
37.4571, 3.09007
37.5033, 1.31577
37.7625, 1.28158
37.9525, 1.03096
37.9537, 1.31577
38.0053, 1.84013
38.0182, 2.73526
38.1729, 2.1872
38.253, 1.06288
38.2548, 1.57992
38.2669, 3.58074
38.4107, 5.51535
38.4625, 8.03333
38.5539, 1.23793
38.6392, 1.84013
38.6683, 2.47091
38.9141, 2.20954
38.9689, 1.94098
39.0839, 3.28437
39.132, 2.15958
69.4955, 2.07179
69.6324, 1.29806
69.7813, 1
69.8841, 1.78486
69.8855, 2.42119
69.9038, 1.23255
70.0359, 2.57344
70.0373, 3.4909
70.1141, 1.69988
70.1327, 1.24931
70.312, 1.04361
70.3833, 1.35651
70.3846, 1.78486
70.4026, 2.42119
70.5868, 2.79143
70.5897, 1.11992
70.6343, 1.61894
70.6357, 2.19611
70.7914, 1.19467
70.8323, 1
70.8684, 1.82152
70.92, 2.52165
71.0232, 5.03322
71.0381, 3.35182
71.1218, 2.14318
71.1688, 1.11505
71.2016, 1.64548
71.3991, 2.27795
71.4128, 2.95192
71.4855, 1.76323
71.5646, 1.43305
71.5831, 1.02054
71.6878, 2.77728
71.8378, 2.73526
71.9009, 4.10737
72.1155, 4.61078
72.3038, 9.14948
72.3168, 5.86216
72.446, 14.1934
72.4983, 23.4739
72.5996, 30.4191
72.6511, 41.2639
72.812, 431.75
72.9186, 1755.42
72.9731, 4657.34
73.1002, 7137.26
73.2224, 3762.2
73.3166, 1045.35
73.4503, 29.9588
73.5474, 15.553
73.6331, 10.3837
73.707, 8.01294
73.8097, 5.7442
74.043, 5.38244
74.089, 2.24348
74.0916, 3.94373
74.157, 2.96696
74.2448, 1.62176
74.2959, 1.10924
74.3637, 2.01639
74.4093, 2.95192
74.4363, 1.16469
74.5426, 4.54679
74.623, 2.33657
74.654, 3.43808
74.7057, 2.00617
74.8915, 3.28437
74.9335, 2.25205
74.9619, 1.20075
74.9637, 1.78486
75.0908, 2.73526
75.2377, 1.35651
75.4148, 2.04737
75.5079, 2.79143
75.6401, 2.09154
75.7414, 2.75199
75.8123, 1.11262
75.8136, 1.48645
75.8151, 2.01639