Folder: gan/li_2000/177K

Note: li_2000/177K/summary.md
## Raman

#### Curve 1 (Disordered Peak)
**Type**: Skewed Gaussian\
**amplitude:** 0.1\
**center** 542.0\
**σ** 7.0
**σ2** 5.0


#### Curve 2 (Ordered Peak)
**Type**:Skewed Gaussian\
**amplitude** 0.5\
**center** 535.7\
**σ** 3.6\
**σ2** 2.8


## S<sup>2</sup>
**Disordered Curve Integrated Area:** 1.227355\
**Ordered Curve Integrated Area:** 4.349281\
**S<sup>2</sup>:** 0.7799













Data analyzed from DOI:10.1063/1.372344

Note: README.md
## Data Repository for Disorder and Its Impact on Mobility of Undoped GaN
[![DOI](https://zenodo.org/badge/664896126.svg)](https://zenodo.org/badge/latestdoi/664896126)

File: raman_peaks.csv
514.995, 1.71467
516.622, 1.71467
518.25, 1.71467
519.877, 1.72159
521.504, 1.72735
523.132, 1.74003
524.488, 1.7579
525.844, 1.78038
526.658, 1.80113
527.743, 1.8288
528.827, 1.86339
529.37, 1.88587
529.641, 1.90835
530.184, 1.9291
530.726, 1.95677
531.269, 1.99828
531.54, 2.0294
531.811, 2.05361
532.173, 2.07437
532.353, 2.14354
532.353, 2.12279
532.353, 2.10203
532.896, 2.17812
533.438, 2.24038
533.438, 2.22309
533.981, 2.28188
533.981, 2.26459
534.252, 2.30436
534.523, 2.32339
535.608, 2.34299
536.693, 2.30955
536.964, 2.28534
537.236, 2.24384
537.507, 2.25421
537.778, 2.22654
538.049, 2.20233
538.32, 2.17812
538.32, 2.15046
538.863, 2.11587
538.863, 2.0882
539.405, 2.05361
539.405, 2.03286
539.677, 2.01211
539.948, 1.99136
540.219, 1.97061
540.671, 1.94063
541.033, 1.91873
541.575, 1.8876
542.118, 1.86685
542.931, 1.84091
544.287, 1.81497
545.915, 1.79537
547.542, 1.78154
549.712, 1.76885
551.339, 1.75848
552.967, 1.75271
554.594, 1.75041
555.679, 1.75271