Folder: gan/li_2000/216K

Note: li_2000/216K/summary.md
## Raman

#### Curve 1 (Disordered Peak)
**Type**: Skewed Gaussian\
**amplitude:** 0.1\
**center** 542.0\
**σ** 7.0
**σ2** 5.3


#### Curve 2 (Ordered Peak)
**Type**:Skewed Gaussian\
**amplitude** 0.6\
**center** 535.6\
**σ** 4.1\
**σ2** 2.7


## S<sup>2</sup>
**Disordered Curve Integrated Area:** 1.563573\
**Ordered Curve Integrated Area:** 4.787618\
**S<sup>2</sup>:** 0.7538














## Reference
Data analyzed from DOI:10.1063/1.372344

Note: README.md
## Data Repository for Disorder and Its Impact on Mobility of Undoped GaN
[![DOI](https://zenodo.org/badge/664896126.svg)](https://zenodo.org/badge/latestdoi/664896126)

File: raman_peaks.csv
513.91, 1.35497
515.537, 1.35843
517.165, 1.36304
518.792, 1.3665
520.419, 1.37457
522.047, 1.3861
523.403, 1.40512
524.488, 1.42242
525.301, 1.44144
526.115, 1.46565
526.929, 1.4864
527.471, 1.50715
528.285, 1.53828
528.827, 1.56422
529.37, 1.58497
529.641, 1.60399
530.184, 1.63166
530.726, 1.66625
531.269, 1.7285
531.269, 1.70775
531.63, 1.75156
531.811, 1.78384
532.173, 1.80229
532.353, 1.85301
532.353, 1.83226
532.896, 1.8876
533.438, 1.93602
533.981, 1.97752
534.252, 2.00692
535.066, 2.03286
536.151, 2.02249
536.693, 1.99136
536.693, 1.97061
536.964, 1.95158
537.416, 1.89913
537.507, 1.92219
538.049, 1.87031
538.049, 1.85128
538.32, 1.82535
538.32, 1.80459
538.863, 1.77001
538.863, 1.74234
539.405, 1.71467
539.405, 1.69392
539.677, 1.66971
539.677, 1.65069
540.129, 1.62013
540.671, 1.59477
541.033, 1.57287
541.575, 1.5452
542.389, 1.51753
543.474, 1.49851
544.559, 1.47602
545.915, 1.45758
547.542, 1.44374
549.17, 1.42876
550.797, 1.41723
552.424, 1.41031
554.052, 1.40685
555.137, 1.40685