Folder: gan/li_2000/286K

Note: li_2000/286K/summary.md
## Raman

#### Curve 1 (Disordered Peak)
**Type**: Skewed Gaussian\
**amplitude:** 0.1\
**center** 541.2\
**σ** 5.4
**σ2** 6.7


#### Curve 2 (Ordered Peak)
**Type**:Skewed Gaussian\
**amplitude** 0.4\
**center** 534.2\
**σ** 5.0\
**σ2** 3.0


## S<sup>2</sup>
**Disordered Curve Integrated Area:** 1.712935\
**Ordered Curve Integrated Area:** 4.270152\
**S<sup>2</sup>:** 0.7137
















## Reference
Data analyzed from DOI:10.1063/1.372344

Note: README.md
## Data Repository for Disorder and Its Impact on Mobility of Undoped GaN
[![DOI](https://zenodo.org/badge/664896126.svg)](https://zenodo.org/badge/latestdoi/664896126)

File: raman_peaks.csv
511.198, 1.00911
512.554, 1.00911
514.995, 1.01603
516.622, 1.02064
518.25, 1.02986
519.877, 1.04716
521.233, 1.05753
522.318, 1.07828
523.403, 1.09731
524.217, 1.11287
524.759, 1.13016
525.573, 1.15437
526.658, 1.17858
527.2, 1.19934
527.743, 1.22355
528.556, 1.24776
528.827, 1.26505
529.37, 1.28926
529.641, 1.31347
530.184, 1.34114
530.726, 1.37572
530.726, 1.35843
531.269, 1.40339
531.63, 1.43567
532.082, 1.46565
532.353, 1.4864
532.896, 1.50369
533.981, 1.52214
535.066, 1.51407
535.066, 1.49678
535.608, 1.47257
536.151, 1.45181
536.693, 1.41723
536.693, 1.38956
537.236, 1.37572
537.507, 1.3567
538.049, 1.33076
538.32, 1.29964
538.863, 1.27888
539.586, 1.23507
540.219, 1.20798
541.304, 1.18377
542.389, 1.16129
543.745, 1.14054
545.372, 1.12094
546.729, 1.10768
548.085, 1.09097
549.712, 1.07944
551.339, 1.07137
552.967, 1.07137
554.052, 1.07137