Folder: gan/li_2000/428K

Note: li_2000/428K/summary.md
## Raman

#### Curve 1 (Disordered Peak)
**Type**: Skewed Gaussian\
**amplitude:** 0.1\
**center** 541.3\
**σ** 7.0
**σ2** 7.0


#### Curve 2 (Ordered Peak)
**Type**:Skewed Gaussian\
**amplitude** 0.3\
**center** 531.6\
**σ** 6.8\
**σ2** 3.8


## S<sup>2</sup>
**Disordered Curve Integrated Area:** 2.529038\
**Ordered Curve Integrated Area:** 4.204439\
**S<sup>2</sup>:** 0.6244
















## Reference
Data analyzed from DOI:10.1063/1.372344

Note: README.md
## Data Repository for Disorder and Its Impact on Mobility of Undoped GaN
[![DOI](https://zenodo.org/badge/664896126.svg)](https://zenodo.org/badge/latestdoi/664896126)

File: raman_peaks.csv
506.316, 0.672473
507.943, 0.675931
509.57, 0.67939
510.926, 0.684001
512.825, 0.690919
514.452, 0.702447
516.08, 0.715129
517.707, 0.735881
519.063, 0.758362
520.148, 0.777384
521.233, 0.798136
522.318, 0.827534
523.403, 0.846556
524.488, 0.867308
525.301, 0.891518
526.115, 0.915729
526.929, 0.939939
527.471, 0.967608
528.014, 0.984901
528.827, 1.01257
529.37, 1.03332
530.455, 1.06791
531.811, 1.07713
532.896, 1.06099
533.438, 1.04024
533.981, 1.01603
534.704, 0.992971
535.337, 0.971067
536.151, 0.950315
536.964, 0.922646
537.778, 0.905353
538.592, 0.881143
539.948, 0.854627
541.575, 0.837333
543.203, 0.823499
544.83, 0.809665
546.457, 0.78776
548.085, 0.772773
549.441, 0.767008
551.611, 0.760091