Folder: gan/li_2000/565K

Note: li_2000/565K/summary.md
## Raman

#### Curve 1 (Disordered Peak)
**Type**: Skewed Gaussian\
**amplitude:** 0.2\
**center** 538.0\
**σ** 6.4
**σ2** 11.0


#### Curve 2 (Ordered Peak)
**Type**:Skewed Gaussian\
**amplitude** 0.3\
**center** 528.1\
**σ** 9.3\
**σ2** 4.3


## S<sup>2</sup>
**Disordered Curve Integrated Area:** 4.688648\
**Ordered Curve Integrated Area:** 5.539961\
**S<sup>2</sup>:** 0.5416
















## Reference
Data analyzed from DOI:10.1063/1.372344

Note: README.md
## Data Repository for Disorder and Its Impact on Mobility of Undoped GaN
[![DOI](https://zenodo.org/badge/664896126.svg)](https://zenodo.org/badge/latestdoi/664896126)

File: raman_peaks.csv
500.348, 0.325458
501.976, 0.324305
503.603, 0.33007
504.959, 0.331222
506.858, 0.341598
509.028, 0.356586
510.655, 0.369267
512.283, 0.387713
513.639, 0.405583
514.724, 0.422876
515.808, 0.441898
516.893, 0.469567
518.25, 0.493777
519.063, 0.516258
520.148, 0.535281
521.233, 0.552574
522.318, 0.580243
523.493, 0.605606
524.217, 0.621746
525.03, 0.652874
526.115, 0.682272
527.471, 0.709365
529.099, 0.713976
530.455, 0.696107
531.54, 0.670167
532.353, 0.652874
533.167, 0.630393
534.252, 0.606183
535.337, 0.590619
536.693, 0.568714
538.32, 0.552574
539.948, 0.534128
541.575, 0.520293
543.203, 0.501848
544.83, 0.484554
546.457, 0.471873
548.085, 0.466108
549.712, 0.467261
550.797, 0.469567