Folder: gan/li_2000/752K

Note: li_2000/752K/summary.md
## Raman

#### Curve 1 (Disordered Peak)
**Type**: Skewed Gaussian\
**amplitude:** 0.2\
**center** 535.0\
**σ** 9.0
**σ2** 12.0


#### Curve 2 (Ordered Peak)
**Type**:Skewed Gaussian\
**amplitude** 0.2\
**center** 522.1\
**σ** 9.9\
**σ2** 5.4


## S<sup>2</sup>
**Disordered Curve Integrated Area:** 6.316703\
**Ordered Curve Integrated Area:** 4.608791\
**S<sup>2</sup>:** 0.4218
















## Reference
Data analyzed from DOI:10.1063/1.372344

Note: README.md
## Data Repository for Disorder and Its Impact on Mobility of Undoped GaN
[![DOI](https://zenodo.org/badge/664896126.svg)](https://zenodo.org/badge/latestdoi/664896126)

File: raman_peaks.csv
499.806, 0.026864
503.061, 0.026864
504.688, 0.0441571
506.316, 0.0649088
507.672, 0.0839312
508.757, 0.104683
509.841, 0.118517
510.926, 0.140998
512.283, 0.168667
513.639, 0.191148
514.995, 0.211324
516.351, 0.230922
517.707, 0.251674
519.063, 0.270697
520.148, 0.293178
521.233, 0.310471
522.589, 0.332952
524.759, 0.341598
526.386, 0.327764
528.014, 0.308165
529.641, 0.289719
531.269, 0.273579
533.438, 0.260897
535.066, 0.251674
536.693, 0.243604
538.863, 0.228617
540.49, 0.215935
542.118, 0.206712
543.745, 0.196336
545.372, 0.192878
546.729, 0.194607